participant,contraste,condition,expdResp,trialType,response,nbrA,CA,IA,rt,pmt,mt,Apmt,FlaTime,ForceTime,chanEMG1,trial,givenResp,com,EMGtrial
S16,1,Accuracy,Right,SA,1.0,1.0,1.0,0.0,1001.953125,901.85546875,100.09765625,901.85546875,,,,1,Right,0.0,C
S16,2,Accuracy,Right,SA,1.0,1.0,1.0,0.0,800.29296875,681.15234375,119.140625,681.15234375,,,,2,Right,0.0,C
S16,1,Accuracy,Left,SA,1.0,1.0,1.0,0.0,700.68359375,484.86328125,215.8203125,484.86328125,,,,3,Left,0.0,C
S16,2,Accuracy,Left,SA,0.0,1.0,0.0,1.0,877.9296875,768.5546875,109.375,768.5546875,,,,4,Right,0.0,I
S16,3,Accuracy,Left,MA,1.0,2.0,2.0,0.0,938.4765625,875.9765625,62.5,660.64453125,215.33203125,,Left,5,Left,0.0,C C
S16,4,Accuracy,Left,SA,1.0,1.0,1.0,0.0,814.94140625,606.4453125,208.49609375,606.4453125,,,,6,Left,0.0,C
S16,1,Accuracy,Right,SA,1.0,1.0,1.0,0.0,854.98046875,681.15234375,173.828125,681.15234375,,,,7,Right,0.0,C
S16,2,Accuracy,Left,MA,1.0,2.0,2.0,0.0,1066.89453125,942.3828125,124.51171875,680.6640625,261.71875,,Left,8,Left,0.0,C C
S16,1,Accuracy,Right,SA,1.0,1.0,1.0,0.0,599.609375,464.84375,134.765625,464.84375,,,,9,Right,0.0,C
S16,3,Accuracy,Right,SA,1.0,1.0,1.0,0.0,630.37109375,528.3203125,102.05078125,528.3203125,,,,10,Right,0.0,C
S16,4,Accuracy,Right,SA,1.0,1.0,1.0,0.0,520.5078125,360.3515625,160.15625,360.3515625,,,,11,Right,0.0,C
S16,2,Accuracy,Right,UT,,0.0,,,534.1796875,,,,,,,12,,,
S16,5,Accuracy,Right,UT,,0.0,,,680.17578125,,,,,,,13,,,
S16,1,Accuracy,Right,UT,,0.0,,,801.7578125,,,,,,,14,,,
S16,3,Accuracy,Right,UT,,0.0,,,519.53125,,,,,,,15,,,
S16,1,Accuracy,Left,UT,,0.0,,,803.7109375,,,,,,,16,,,
S16,3,Accuracy,Left,UT,,0.0,,,721.19140625,,,,,,,17,,,
S16,3,Accuracy,Left,UT,,0.0,,,779.296875,,,,,,,18,,,
S16,2,Accuracy,Right,UT,,0.0,,,797.36328125,,,,,,,19,,,
S16,4,Accuracy,Left,UT,,0.0,,,700.68359375,,,,,,,20,,,
S16,2,Accuracy,Right,UT,,0.0,,,662.109375,,,,,,,21,,,
S16,3,Accuracy,Right,UT,,0.0,,,504.39453125,,,,,,,22,,,
S16,5,Accuracy,Left,UT,,0.0,,,590.33203125,,,,,,,23,,,
S16,1,Accuracy,Left,UT,,0.0,,,1029.78515625,,,,,559.5703125,,24,,,
S16,3,Accuracy,Left,UT,,0.0,,,609.86328125,,,,,,,25,,,
S16,4,Accuracy,Left,SA,1.0,1.0,1.0,0.0,534.1796875,349.609375,184.5703125,349.609375,,,,26,Left,0.0,C
S16,5,Accuracy,Right,SA,1.0,1.0,1.0,0.0,369.140625,272.94921875,96.19140625,272.94921875,,,,27,Right,0.0,C
S16,5,Accuracy,Right,MA,1.0,2.0,1.0,1.0,445.80078125,350.5859375,95.21484375,202.1484375,148.4375,,Left,28,Right,1.0,I C
S16,2,Accuracy,Right,MA,0.0,2.0,0.0,2.0,584.47265625,433.10546875,151.3671875,140.13671875,292.96875,,Left,29,Left,0.0,I I
S16,5,Accuracy,Left,MA,1.0,2.0,2.0,0.0,662.59765625,529.78515625,132.8125,344.23828125,185.546875,,Left,30,Left,0.0,C C
S16,4,Accuracy,Left,SA,1.0,1.0,1.0,0.0,460.44921875,281.25,179.19921875,281.25,,,,31,Left,0.0,C
S16,1,Accuracy,Left,SA,0.0,1.0,0.0,1.0,470.21484375,286.1328125,184.08203125,286.1328125,,,,32,Right,0.0,I
S16,2,Accuracy,Left,UT,,0.0,,,645.99609375,,,,,,,33,,,
S16,4,Accuracy,Left,SA,1.0,1.0,1.0,0.0,567.3828125,341.796875,225.5859375,341.796875,,,,34,Left,0.0,C
S16,1,Accuracy,Left,MA,0.0,3.0,1.0,2.0,893.5546875,812.5,81.0546875,372.55859375,439.94140625,398.92578125,Left,35,Right,1.0,C I I
S16,2,Accuracy,Left,MA,1.0,3.0,3.0,0.0,743.1640625,666.50390625,76.66015625,365.234375,301.26953125,,Left,36,Left,0.0,C C C
S16,5,Accuracy,Left,SA,1.0,1.0,1.0,0.0,521.484375,357.421875,164.0625,357.421875,,,,37,Left,0.0,C
S16,5,Accuracy,Right,MA,1.0,2.0,2.0,0.0,683.10546875,585.9375,97.16796875,327.63671875,258.30078125,,Right,38,Right,0.0,C C
S16,4,Accuracy,Right,MA,1.0,2.0,2.0,0.0,685.546875,596.19140625,89.35546875,320.80078125,275.390625,,Right,39,Right,0.0,C C
S16,3,Accuracy,Right,UT,,0.0,,,585.44921875,,,,,,,40,,,
S16,5,Accuracy,Right,UT,,0.0,,,428.7109375,,,,,,,41,,,
S16,2,Accuracy,Right,UT,,0.0,,,509.765625,,,,,,,42,,,
S16,3,Accuracy,Right,UT,,0.0,,,458.984375,,,,,,,43,,,
S16,1,Accuracy,Right,UT,,0.0,,,854.98046875,,,,,,,44,,,
S16,4,Accuracy,Right,MA,1.0,2.0,2.0,0.0,714.84375,574.70703125,140.13671875,338.37890625,236.328125,,Right,45,Right,0.0,C C
S16,3,Accuracy,Right,SA,1.0,1.0,1.0,0.0,634.27734375,517.08984375,117.1875,517.08984375,,,,46,Right,0.0,C
S16,2,Accuracy,Right,SA,1.0,1.0,1.0,0.0,516.6015625,371.09375,145.5078125,371.09375,,,,47,Right,0.0,C
S16,2,Accuracy,Right,MA,1.0,2.0,2.0,0.0,823.73046875,723.6328125,100.09765625,520.01953125,203.61328125,,Right,48,Right,0.0,C C
S16,4,Accuracy,Left,MA,1.0,2.0,2.0,0.0,832.03125,687.5,144.53125,318.84765625,368.65234375,,Left,49,Left,0.0,C C
S16,4,Accuracy,Right,MA,1.0,2.0,2.0,0.0,747.55859375,636.71875,110.83984375,400.87890625,235.83984375,,Right,50,Right,0.0,C C
S16,5,Accuracy,Right,SA,1.0,1.0,1.0,0.0,454.1015625,316.40625,137.6953125,316.40625,,,,51,Right,0.0,C
S16,4,Accuracy,Left,MA,1.0,4.0,4.0,0.0,1018.5546875,967.7734375,50.78125,416.50390625,551.26953125,,Left,52,Left,0.0,C C C C
S16,1,Accuracy,Left,MA,0.0,5.0,3.0,2.0,1291.9921875,1222.16796875,69.82421875,470.21484375,751.953125,764.6484375,Left,53,Right,1.0,C C C I I
S16,1,Accuracy,Right,MA,1.0,2.0,1.0,1.0,750.48828125,576.171875,174.31640625,459.9609375,116.2109375,,Left,54,Right,1.0,I C
S16,5,Accuracy,Left,SA,1.0,1.0,1.0,0.0,478.515625,294.921875,183.59375,294.921875,,,,55,Left,0.0,C
S16,3,Accuracy,Left,SA,0.0,1.0,0.0,1.0,572.75390625,448.73046875,124.0234375,448.73046875,,,,56,Right,0.0,I
S16,3,Accuracy,Right,MA,1.0,2.0,1.0,1.0,1119.140625,1028.80859375,90.33203125,647.4609375,381.34765625,,Left,57,Right,1.0,I C
S16,5,Accuracy,Left,MA,1.0,2.0,2.0,0.0,670.41015625,543.9453125,126.46484375,254.39453125,289.55078125,,Left,58,Left,0.0,C C
S16,2,Accuracy,Left,UT,,0.0,,,1239.2578125,,,,,,,59,,,
S16,1,Accuracy,Right,UT,,0.0,,,818.359375,,,,,,,60,,,
S16,1,Accuracy,Left,MA,0.0,2.0,0.0,2.0,937.01171875,882.8125,54.19921875,740.72265625,142.08984375,,Right,61,Right,0.0,I I
S16,4,Accuracy,Right,SA,1.0,1.0,1.0,0.0,620.1171875,489.2578125,130.859375,489.2578125,,,,62,Right,0.0,C
S16,1,Accuracy,Left,MA,0.0,3.0,0.0,3.0,939.94140625,819.3359375,120.60546875,474.12109375,345.21484375,,Right,63,Right,0.0,I I I
S16,2,Accuracy,Right,SA,1.0,1.0,1.0,0.0,562.01171875,427.734375,134.27734375,427.734375,,,,64,Right,0.0,C
S16,4,Accuracy,Left,MA,1.0,3.0,3.0,0.0,1057.6171875,946.77734375,110.83984375,320.3125,626.46484375,,Left,65,Left,0.0,C C C
S16,1,Accuracy,Left,SA,0.0,1.0,0.0,1.0,553.22265625,377.44140625,175.78125,377.44140625,,,,66,Right,0.0,I
S16,5,Accuracy,Right,SA,1.0,1.0,1.0,0.0,443.84765625,319.82421875,124.0234375,319.82421875,,,,67,Right,0.0,C
S16,3,Accuracy,Left,UT,,0.0,,,630.859375,,,,,,,68,,,
S16,2,Accuracy,Right,UT,,0.0,,,568.359375,,,,,,,69,,,
S16,5,Accuracy,Left,MA,1.0,2.0,2.0,0.0,597.65625,561.5234375,36.1328125,391.11328125,170.41015625,,Left,70,Left,0.0,C C
S16,2,Accuracy,Left,SA,0.0,1.0,0.0,1.0,395.99609375,250.48828125,145.5078125,250.48828125,,,,71,Right,0.0,I
S16,2,Accuracy,Left,SA,1.0,1.0,1.0,0.0,571.2890625,398.92578125,172.36328125,398.92578125,,,,72,Left,0.0,C
S16,5,Accuracy,Left,SA,1.0,1.0,1.0,0.0,550.78125,302.734375,248.046875,302.734375,,,,73,Left,0.0,C
S16,1,Accuracy,Right,MA,1.0,2.0,1.0,1.0,510.25390625,380.37109375,129.8828125,232.421875,147.94921875,,Left,74,Right,1.0,I C
S16,2,Accuracy,Left,SA,0.0,1.0,0.0,1.0,595.703125,439.94140625,155.76171875,439.94140625,,,,75,Right,0.0,I
S16,3,Accuracy,Left,MA,1.0,2.0,2.0,0.0,956.54296875,859.86328125,96.6796875,587.40234375,272.4609375,,Left,76,Left,0.0,C C
S16,2,Accuracy,Left,SA,0.0,1.0,0.0,1.0,603.515625,417.96875,185.546875,417.96875,,,,77,Right,0.0,I
S16,3,Accuracy,Right,UT,,0.0,,,474.12109375,,,,,,,78,,,
S16,3,Accuracy,Right,MA,1.0,3.0,3.0,0.0,722.65625,666.50390625,56.15234375,371.09375,295.41015625,,Right,79,Right,0.0,C C C
S16,5,Accuracy,Left,SA,1.0,1.0,1.0,0.0,497.0703125,324.70703125,172.36328125,324.70703125,,,,80,Left,0.0,C
S16,4,Accuracy,Right,MA,1.0,2.0,2.0,0.0,606.4453125,535.15625,71.2890625,270.5078125,264.6484375,,Right,81,Right,0.0,C C
S16,4,Accuracy,Left,MA,1.0,2.0,2.0,0.0,810.546875,608.3984375,202.1484375,286.1328125,322.265625,,Left,82,Left,0.0,C C
S16,4,Accuracy,Left,SA,1.0,1.0,1.0,0.0,554.19921875,369.140625,185.05859375,369.140625,,,,83,Left,0.0,C
S16,4,Accuracy,Right,UT,,0.0,,,399.90234375,,,,,,,84,,,
S16,5,Accuracy,Right,MA,1.0,2.0,2.0,0.0,552.24609375,444.82421875,107.421875,277.34375,167.48046875,,Right,85,Right,0.0,C C
S16,1,Accuracy,Right,UT,,0.0,,,566.89453125,,,,,256.8359375,,86,,,
S16,3,Accuracy,Left,UT,,0.0,,,495.60546875,,,,,,,87,,,
S16,1,Accuracy,Right,MA,1.0,2.0,1.0,1.0,497.55859375,382.8125,114.74609375,229.00390625,153.80859375,,Left,88,Right,1.0,I C
S16,4,Accuracy,Right,SA,1.0,1.0,1.0,0.0,449.70703125,337.890625,111.81640625,337.890625,,,,89,Right,0.0,C
S16,3,Accuracy,Left,MA,1.0,2.0,2.0,0.0,661.1328125,498.53515625,162.59765625,229.4921875,269.04296875,,Left,90,Left,0.0,C C
S16,5,Accuracy,Left,MA,1.0,3.0,2.0,1.0,628.90625,524.4140625,104.4921875,213.37890625,311.03515625,353.515625,Right,91,Left,1.0,I C C
S16,4,Accuracy,Right,UT,,0.0,,,437.01171875,,,,,,,92,,,
S16,3,Accuracy,Right,SA,1.0,1.0,1.0,0.0,475.09765625,345.703125,129.39453125,345.703125,,,,93,Right,0.0,C
S16,5,Accuracy,Right,UT,,0.0,,,641.6015625,,,,,,,94,,,
S16,3,Accuracy,Left,SA,1.0,1.0,1.0,0.0,521.484375,379.39453125,142.08984375,379.39453125,,,,95,Left,0.0,C
S16,2,Accuracy,Left,MA,1.0,2.0,2.0,0.0,809.08203125,636.71875,172.36328125,430.17578125,206.54296875,,Left,96,Left,0.0,C C
S16,5,Accuracy,Left,SA,1.0,1.0,1.0,0.0,444.82421875,317.87109375,126.953125,317.87109375,,,,97,Left,0.0,C
S16,1,Accuracy,Left,SA,0.0,1.0,0.0,1.0,371.58203125,250.9765625,120.60546875,250.9765625,,,,98,Right,0.0,I
S16,5,Accuracy,Right,SA,1.0,1.0,1.0,0.0,468.26171875,345.21484375,123.046875,345.21484375,,,,99,Right,0.0,C
S16,4,Accuracy,Right,SA,1.0,1.0,1.0,0.0,416.9921875,318.84765625,98.14453125,318.84765625,,,,100,Right,0.0,C
S16,2,Accuracy,Right,SA,1.0,1.0,1.0,0.0,766.6015625,631.8359375,134.765625,631.8359375,,,,101,Right,0.0,C
S16,3,Accuracy,Right,SA,1.0,1.0,1.0,0.0,466.30859375,348.6328125,117.67578125,348.6328125,,,,102,Right,0.0,C
S16,1,Accuracy,Right,SA,1.0,1.0,1.0,0.0,556.640625,452.63671875,104.00390625,452.63671875,,,,103,Right,0.0,C
S16,4,Accuracy,Right,MA,1.0,2.0,2.0,0.0,660.64453125,586.9140625,73.73046875,330.56640625,256.34765625,,Right,104,Right,0.0,C C
S16,3,Accuracy,Left,SA,0.0,1.0,0.0,1.0,419.43359375,290.0390625,129.39453125,290.0390625,,,,105,Right,0.0,I
S16,5,Accuracy,Right,SA,1.0,1.0,1.0,0.0,396.97265625,293.45703125,103.515625,293.45703125,,,,106,Right,0.0,C
S16,3,Accuracy,Right,SA,1.0,1.0,1.0,0.0,441.40625,341.796875,99.609375,341.796875,,,,107,Right,0.0,C
S16,5,Accuracy,Right,SA,1.0,1.0,1.0,0.0,421.875,303.22265625,118.65234375,303.22265625,,,,108,Right,0.0,C
S16,1,Accuracy,Right,MA,0.0,2.0,0.0,2.0,841.796875,738.76953125,103.02734375,479.4921875,259.27734375,,Left,109,Left,0.0,I I
S16,2,Accuracy,Left,MA,1.0,3.0,2.0,1.0,854.98046875,749.51171875,105.46875,283.69140625,465.8203125,368.65234375,Left,110,Left,2.0,C I C
S16,2,Accuracy,Right,UT,,0.0,,,1100.5859375,,,,,728.02734375,,111,,,
S16,1,Accuracy,Left,UT,,0.0,,,736.328125,,,,,,,112,,,
S16,4,Accuracy,Left,UT,,0.0,,,482.421875,,,,,,,113,,,
S16,3,Accuracy,Left,UT,,0.0,,,524.4140625,,,,,,,114,,,
S16,2,Accuracy,Left,UT,,0.0,,,634.765625,,,,,,,115,,,
S16,4,Accuracy,Right,SA,1.0,1.0,1.0,0.0,471.6796875,295.41015625,176.26953125,295.41015625,,,,116,Right,0.0,C
S16,5,Accuracy,Left,SA,1.0,1.0,1.0,0.0,509.27734375,312.98828125,196.2890625,312.98828125,,,,117,Left,0.0,C
S16,5,Accuracy,Left,SA,1.0,1.0,1.0,0.0,541.50390625,335.44921875,206.0546875,335.44921875,,,,118,Left,0.0,C
S16,5,Accuracy,Right,SA,1.0,1.0,1.0,0.0,534.1796875,315.91796875,218.26171875,315.91796875,,,,119,Right,0.0,C
S16,3,Accuracy,Right,SA,1.0,1.0,1.0,0.0,922.36328125,499.51171875,422.8515625,499.51171875,,,,120,Right,0.0,C
S16,5,Accuracy,Left,SA,1.0,1.0,1.0,0.0,752.9296875,256.34765625,496.58203125,256.34765625,,,,121,Left,0.0,C
S16,3,Accuracy,Right,SA,1.0,1.0,1.0,0.0,400.390625,280.76171875,119.62890625,280.76171875,,,,122,Right,0.0,C
S16,1,Accuracy,Right,SA,1.0,1.0,1.0,0.0,486.328125,360.3515625,125.9765625,360.3515625,,208.49609375,,123,Right,0.0,C
S16,4,Accuracy,Left,SA,1.0,1.0,1.0,0.0,416.9921875,237.79296875,179.19921875,237.79296875,,,,124,Left,0.0,C
S16,2,Accuracy,Left,MA,0.0,2.0,1.0,1.0,629.8828125,435.05859375,194.82421875,123.53515625,311.5234375,300.29296875,Left,125,Right,1.0,C I
S16,4,Accuracy,Right,SA,1.0,1.0,1.0,0.0,368.1640625,244.62890625,123.53515625,244.62890625,,,,126,Right,0.0,C
S16,4,Accuracy,Right,SA,1.0,1.0,1.0,0.0,371.58203125,255.859375,115.72265625,255.859375,,,,127,Right,0.0,C
S16,4,Accuracy,Left,SA,1.0,1.0,1.0,0.0,437.98828125,238.76953125,199.21875,238.76953125,,,,128,Left,0.0,C
S16,4,Accuracy,Right,SA,1.0,1.0,1.0,0.0,622.0703125,326.171875,295.8984375,326.171875,,,,129,Right,0.0,C
S16,5,Accuracy,Right,SA,1.0,1.0,1.0,0.0,665.52734375,286.62109375,378.90625,286.62109375,,,,130,Right,0.0,C
S16,2,Accuracy,Right,MA,1.0,2.0,1.0,1.0,814.94140625,722.65625,92.28515625,573.73046875,148.92578125,187.01171875,Left,131,Right,1.0,I C
S16,2,Accuracy,Right,MA,1.0,2.0,1.0,1.0,817.3828125,525.390625,291.9921875,263.671875,261.71875,,Left,132,Right,1.0,I C
S16,1,Accuracy,Right,SA,0.0,1.0,0.0,1.0,842.28515625,729.00390625,113.28125,729.00390625,,,,133,Left,0.0,I
S16,4,Accuracy,Right,SA,1.0,1.0,1.0,0.0,448.73046875,324.70703125,124.0234375,324.70703125,,,,134,Right,0.0,C
S16,4,Accuracy,Left,SA,1.0,1.0,1.0,0.0,596.6796875,466.796875,129.8828125,466.796875,,,,135,Left,0.0,C
S16,3,Accuracy,Right,SA,1.0,1.0,1.0,0.0,351.5625,247.0703125,104.4921875,247.0703125,,,,136,Right,0.0,C
S16,2,Accuracy,Left,SA,0.0,1.0,0.0,1.0,512.20703125,284.1796875,228.02734375,284.1796875,,,,137,Right,0.0,I
S16,1,Accuracy,Right,SA,1.0,1.0,1.0,0.0,510.25390625,376.46484375,133.7890625,376.46484375,,,,138,Right,0.0,C
S16,3,Accuracy,Right,SA,1.0,1.0,1.0,0.0,384.27734375,292.48046875,91.796875,292.48046875,,,,139,Right,0.0,C
S16,2,Accuracy,Right,SA,1.0,1.0,1.0,0.0,383.30078125,280.76171875,102.5390625,280.76171875,,,,140,Right,0.0,C
S16,2,Accuracy,Left,SA,0.0,1.0,0.0,1.0,488.76953125,333.49609375,155.2734375,333.49609375,,,,141,Right,0.0,I
S16,4,Accuracy,Right,MA,1.0,2.0,1.0,1.0,577.1484375,469.7265625,107.421875,240.72265625,229.00390625,279.296875,Left,142,Right,1.0,I C
S16,3,Accuracy,Right,SA,0.0,1.0,0.0,1.0,383.30078125,252.9296875,130.37109375,252.9296875,,,,143,Left,0.0,I
S16,4,Accuracy,Left,MA,0.0,2.0,0.0,2.0,873.53515625,721.19140625,152.34375,585.9375,135.25390625,,Right,144,Right,0.0,I I
S16,5,Accuracy,Left,SA,1.0,1.0,1.0,0.0,518.5546875,341.796875,176.7578125,341.796875,,,,145,Left,0.0,C
S16,3,Accuracy,Left,MA,0.0,3.0,1.0,2.0,904.296875,815.91796875,88.37890625,338.8671875,477.05078125,520.01953125,Left,146,Right,1.0,C I I
S16,1,Accuracy,Left,SA,1.0,1.0,1.0,0.0,596.6796875,450.68359375,145.99609375,450.68359375,,,,147,Left,0.0,C
S16,3,Accuracy,Left,SA,0.0,1.0,0.0,1.0,601.5625,452.63671875,148.92578125,452.63671875,,,,148,Right,0.0,I
S16,2,Accuracy,Right,MA,1.0,2.0,2.0,0.0,894.04296875,786.1328125,107.91015625,441.89453125,344.23828125,,Right,149,Right,0.0,C C
S16,3,Accuracy,Left,MA,1.0,3.0,2.0,1.0,633.7890625,618.65234375,15.13671875,382.32421875,236.328125,202.63671875,Left,150,Left,2.0,C I C
S16,4,Accuracy,Left,MA,1.0,2.0,1.0,1.0,693.359375,556.15234375,137.20703125,318.359375,237.79296875,352.05078125,Right,151,Left,1.0,I C
S16,5,Accuracy,Left,SA,1.0,1.0,1.0,0.0,473.6328125,296.875,176.7578125,296.875,,,,152,Left,0.0,C
S16,3,Accuracy,Left,UT,,0.0,,,512.6953125,,,,,,,153,,,
S16,5,Accuracy,Right,SA,1.0,1.0,1.0,0.0,469.23828125,321.77734375,147.4609375,321.77734375,,,,154,Right,0.0,C
S16,4,Accuracy,Left,MA,1.0,2.0,2.0,0.0,658.203125,555.17578125,103.02734375,323.2421875,231.93359375,,Left,155,Left,0.0,C C
S16,5,Accuracy,Left,UT,,0.0,,,443.84765625,,,,,,,156,,,
S16,1,Accuracy,Left,MA,0.0,2.0,1.0,1.0,722.65625,577.1484375,145.5078125,227.05078125,350.09765625,467.7734375,Left,157,Right,1.0,C I
S16,5,Accuracy,Left,SA,1.0,1.0,1.0,0.0,389.6484375,222.16796875,167.48046875,222.16796875,,,,158,Left,0.0,C
S16,4,Accuracy,Right,MA,1.0,2.0,1.0,1.0,373.046875,171.875,201.171875,144.04296875,27.83203125,,Left,159,Right,1.0,I C
S16,2,Accuracy,Right,MA,1.0,4.0,3.0,1.0,630.859375,557.12890625,73.73046875,211.42578125,345.703125,,Left,160,Right,1.0,I C C C
S16,1,Accuracy,Right,MA,1.0,3.0,1.0,2.0,689.94140625,566.40625,123.53515625,169.43359375,396.97265625,472.65625,Left,161,Right,1.0,I I C
S16,1,Accuracy,Left,SA,1.0,1.0,1.0,0.0,356.4453125,234.86328125,121.58203125,234.86328125,,,,162,Left,0.0,C
S16,5,Accuracy,Right,SA,1.0,1.0,1.0,0.0,371.58203125,248.046875,123.53515625,248.046875,,,,163,Right,0.0,C
S16,1,Accuracy,Left,SA,1.0,1.0,1.0,0.0,402.83203125,261.23046875,141.6015625,261.23046875,,,,164,Left,0.0,C
S16,1,Accuracy,Left,MA,1.0,3.0,2.0,1.0,631.34765625,527.34375,104.00390625,249.0234375,278.3203125,346.6796875,Left,165,Left,1.0,C C I
S16,2,Accuracy,Right,SA,1.0,1.0,1.0,0.0,496.58203125,348.6328125,147.94921875,348.6328125,,,,166,Right,0.0,C
S16,5,Accuracy,Right,MA,1.0,2.0,2.0,0.0,733.3984375,620.1171875,113.28125,299.31640625,320.80078125,,Right,167,Right,0.0,C C
S16,3,Accuracy,Left,UT,,0.0,,,430.17578125,,,,,,,168,,,
S16,1,Accuracy,Left,MA,0.0,2.0,0.0,2.0,645.5078125,555.17578125,90.33203125,266.11328125,289.0625,,Right,169,Right,0.0,I I
S16,1,Accuracy,Left,MA,1.0,3.0,2.0,1.0,622.0703125,523.92578125,98.14453125,236.81640625,287.109375,350.5859375,Right,170,Left,1.0,I C C
S16,5,Accuracy,Right,MA,1.0,2.0,2.0,0.0,589.84375,508.7890625,81.0546875,260.7421875,248.046875,,Right,171,Right,0.0,C C
S16,4,Accuracy,Left,MA,1.0,2.0,1.0,1.0,449.21875,324.70703125,124.51171875,232.91015625,91.796875,,Right,172,Left,1.0,I C
S16,3,Accuracy,Left,MA,0.0,2.0,1.0,1.0,445.80078125,320.80078125,125.0,253.90625,66.89453125,,Left,173,Right,1.0,C I
S16,5,Accuracy,Left,SA,1.0,1.0,1.0,0.0,440.4296875,267.578125,172.8515625,267.578125,,,,174,Left,0.0,C
S16,1,Accuracy,Left,SA,1.0,1.0,1.0,0.0,391.11328125,246.58203125,144.53125,246.58203125,,,,175,Left,0.0,C
S16,1,Accuracy,Right,MA,1.0,3.0,3.0,0.0,772.4609375,666.015625,106.4453125,264.16015625,401.85546875,,Right,176,Right,0.0,C C C
S16,5,Accuracy,Right,MA,1.0,3.0,3.0,0.0,709.47265625,615.234375,94.23828125,288.0859375,327.1484375,,Right,177,Right,0.0,C C C
S16,2,Accuracy,Left,MA,1.0,2.0,1.0,1.0,703.125,563.4765625,139.6484375,269.53125,293.9453125,416.50390625,Right,178,Left,1.0,I C
S16,3,Accuracy,Right,SA,1.0,1.0,1.0,0.0,463.37890625,267.08984375,196.2890625,267.08984375,,,,179,Right,0.0,C
S16,2,Accuracy,Right,SA,1.0,1.0,1.0,0.0,370.60546875,260.25390625,110.3515625,260.25390625,,,,180,Right,0.0,C
S16,2,Accuracy,Left,SA,0.0,1.0,0.0,1.0,398.4375,288.0859375,110.3515625,288.0859375,,,,181,Right,0.0,I
S16,5,Accuracy,Right,SA,1.0,1.0,1.0,0.0,368.65234375,264.16015625,104.4921875,264.16015625,,,,182,Right,0.0,C
S16,2,Accuracy,Left,MA,1.0,2.0,2.0,0.0,857.421875,758.30078125,99.12109375,511.23046875,247.0703125,,Left,183,Left,0.0,C C
S16,3,Accuracy,Right,MA,1.0,2.0,2.0,0.0,621.58203125,497.55859375,124.0234375,255.37109375,242.1875,,Right,184,Right,0.0,C C
S16,4,Accuracy,Left,SA,1.0,1.0,1.0,0.0,359.86328125,216.30859375,143.5546875,216.30859375,,,,185,Left,0.0,C
S16,2,Accuracy,Left,MA,1.0,2.0,1.0,1.0,583.49609375,456.54296875,126.953125,232.91015625,223.6328125,330.078125,Right,186,Left,1.0,I C
S16,5,Accuracy,Left,SA,1.0,1.0,1.0,0.0,435.05859375,312.01171875,123.046875,312.01171875,,,,187,Left,0.0,C
S16,2,Accuracy,Right,MA,0.0,3.0,0.0,3.0,802.734375,681.640625,121.09375,303.22265625,378.41796875,,Left,188,Left,0.0,I I I
S16,3,Accuracy,Left,MA,1.0,3.0,3.0,0.0,1063.96484375,950.68359375,113.28125,323.2421875,627.44140625,,Left,189,Left,0.0,C C C
S16,2,Accuracy,Left,SA,0.0,1.0,0.0,1.0,527.83203125,437.5,90.33203125,437.5,,,,190,Right,0.0,I
S16,5,Accuracy,Left,SA,1.0,1.0,1.0,0.0,475.5859375,316.40625,159.1796875,316.40625,,,,191,Left,0.0,C
S16,4,Accuracy,Left,SA,1.0,1.0,1.0,0.0,514.6484375,348.14453125,166.50390625,348.14453125,,,,192,Left,0.0,C
S16,4,Accuracy,Right,MA,1.0,2.0,2.0,0.0,639.16015625,527.34375,111.81640625,287.59765625,239.74609375,,Right,193,Right,0.0,C C
S16,1,Accuracy,Right,SA,0.0,1.0,0.0,1.0,383.30078125,224.609375,158.69140625,224.609375,,,,194,Left,0.0,I
S16,3,Accuracy,Left,SA,0.0,1.0,0.0,1.0,392.578125,191.89453125,200.68359375,191.89453125,,,,195,Right,0.0,I
S16,4,Accuracy,Right,SA,1.0,1.0,1.0,0.0,456.54296875,301.26953125,155.2734375,301.26953125,,,,196,Right,0.0,C
S16,1,Accuracy,Right,SA,1.0,1.0,1.0,0.0,388.671875,280.2734375,108.3984375,280.2734375,,,,197,Right,0.0,C
S16,1,Accuracy,Right,SA,1.0,1.0,1.0,0.0,418.45703125,278.3203125,140.13671875,278.3203125,,,,198,Right,0.0,C
S16,1,Accuracy,Left,MA,1.0,3.0,2.0,1.0,792.48046875,613.28125,179.19921875,297.36328125,315.91796875,,Right,199,Left,1.0,I C C
S16,3,Accuracy,Right,SA,1.0,1.0,1.0,0.0,393.5546875,287.59765625,105.95703125,287.59765625,,,,200,Right,0.0,C
S16,4,Accuracy,Right,SA,1.0,1.0,1.0,0.0,771.97265625,648.92578125,123.046875,648.92578125,,,,201,Right,0.0,C
S16,4,Accuracy,Left,SA,1.0,1.0,1.0,0.0,518.06640625,380.859375,137.20703125,380.859375,,,,202,Left,0.0,C
S16,4,Accuracy,Right,MA,1.0,2.0,2.0,0.0,578.61328125,476.5625,102.05078125,240.72265625,235.83984375,,Right,203,Right,0.0,C C
S16,1,Accuracy,Right,SA,0.0,1.0,0.0,1.0,373.53515625,259.27734375,114.2578125,259.27734375,,,,204,Left,0.0,I
S16,1,Accuracy,Right,SA,1.0,1.0,1.0,0.0,342.28515625,240.72265625,101.5625,240.72265625,,,,205,Right,0.0,C
S16,1,Accuracy,Right,MA,1.0,4.0,3.0,1.0,515.625,417.48046875,98.14453125,252.44140625,165.0390625,,Right,206,Right,1.0,C C C I
S16,3,Accuracy,Left,SA,0.0,1.0,0.0,1.0,477.05078125,309.08203125,167.96875,309.08203125,,,,207,Right,0.0,I
S16,5,Accuracy,Right,MA,1.0,2.0,2.0,0.0,793.9453125,711.42578125,82.51953125,370.1171875,341.30859375,,Right,208,Right,0.0,C C
S16,4,Accuracy,Left,SA,1.0,1.0,1.0,0.0,452.1484375,268.06640625,184.08203125,268.06640625,,,,209,Left,0.0,C
S16,2,Accuracy,Right,SA,1.0,1.0,1.0,0.0,438.4765625,334.9609375,103.515625,334.9609375,,,,210,Right,0.0,C
S16,1,Accuracy,Left,MA,1.0,2.0,1.0,1.0,1106.93359375,973.6328125,133.30078125,495.60546875,478.02734375,594.7265625,Right,211,Left,1.0,I C
S16,3,Accuracy,Right,SA,1.0,1.0,1.0,0.0,377.9296875,274.90234375,103.02734375,274.90234375,,,,212,Right,0.0,C
S16,2,Accuracy,Left,MA,1.0,4.0,3.0,1.0,902.83203125,833.49609375,69.3359375,255.37109375,578.125,,Right,213,Left,1.0,I C C C
S16,1,Accuracy,Left,SA,0.0,1.0,0.0,1.0,413.0859375,285.15625,127.9296875,285.15625,,,,214,Right,0.0,I
S16,3,Accuracy,Left,SA,1.0,1.0,1.0,0.0,512.6953125,371.58203125,141.11328125,371.58203125,,,,215,Left,0.0,C
S16,2,Accuracy,Right,SA,1.0,1.0,1.0,0.0,634.27734375,475.5859375,158.69140625,475.5859375,,,,216,Right,0.0,C
S16,1,Accuracy,Right,MA,0.0,3.0,0.0,3.0,851.07421875,742.67578125,108.3984375,380.859375,361.81640625,,Left,217,Left,0.0,I I I
S16,3,Accuracy,Right,MA,1.0,2.0,2.0,0.0,869.62890625,765.625,104.00390625,494.140625,271.484375,,Right,218,Right,0.0,C C
S16,5,Accuracy,Right,SA,1.0,1.0,1.0,0.0,401.3671875,284.1796875,117.1875,284.1796875,,,,219,Right,0.0,C
S16,5,Accuracy,Left,SA,1.0,1.0,1.0,0.0,404.78515625,270.01953125,134.765625,270.01953125,,,,220,Left,0.0,C
S16,5,Accuracy,Left,MA,1.0,3.0,3.0,0.0,636.71875,539.0625,97.65625,243.1640625,295.8984375,,Left,221,Left,0.0,C C C
S16,5,Accuracy,Right,SA,1.0,1.0,1.0,0.0,426.26953125,322.265625,104.00390625,322.265625,,,,222,Right,0.0,C
S16,5,Accuracy,Right,SA,1.0,1.0,1.0,0.0,374.51171875,261.71875,112.79296875,261.71875,,,,223,Right,0.0,C
S16,2,Accuracy,Left,SA,1.0,1.0,1.0,0.0,399.90234375,262.6953125,137.20703125,262.6953125,,,,224,Left,0.0,C
S16,2,Accuracy,Left,SA,1.0,1.0,1.0,0.0,661.62109375,513.18359375,148.4375,513.18359375,,,,225,Left,0.0,C
S16,2,Accuracy,Left,MA,1.0,2.0,1.0,1.0,714.35546875,547.8515625,166.50390625,547.8515625,0.0,,Left,226,Left,1.0,C I
S16,3,Accuracy,Right,MA,1.0,2.0,2.0,0.0,675.78125,577.1484375,98.6328125,306.15234375,270.99609375,,Right,227,Right,0.0,C C
S16,2,Accuracy,Left,SA,0.0,1.0,0.0,1.0,494.140625,350.5859375,143.5546875,350.5859375,,,,228,Right,0.0,I
S16,5,Accuracy,Left,MA,1.0,2.0,2.0,0.0,663.57421875,554.6875,108.88671875,306.15234375,248.53515625,,Left,229,Left,0.0,C C
S16,5,Accuracy,Left,SA,1.0,1.0,1.0,0.0,481.93359375,340.33203125,141.6015625,340.33203125,,,,230,Left,0.0,C
S16,4,Accuracy,Left,SA,1.0,1.0,1.0,0.0,454.58984375,330.078125,124.51171875,330.078125,,,,231,Left,0.0,C
S16,4,Accuracy,Left,SA,1.0,1.0,1.0,0.0,456.0546875,258.7890625,197.265625,258.7890625,,,,232,Left,0.0,C
S16,4,Accuracy,Left,MA,1.0,3.0,3.0,0.0,762.6953125,588.8671875,173.828125,266.11328125,322.75390625,,Left,233,Left,0.0,C C C
S16,2,Accuracy,Right,UT,,0.0,,,456.54296875,,,,,,,234,,,
S16,5,Accuracy,Right,UT,,0.0,,,618.65234375,,,,,,,235,,,
S16,2,Accuracy,Right,SA,0.0,1.0,0.0,1.0,387.20703125,227.5390625,159.66796875,227.5390625,,,,236,Left,0.0,I
S16,2,Accuracy,Left,SA,0.0,1.0,0.0,1.0,323.2421875,197.265625,125.9765625,197.265625,,,,237,Right,0.0,I
S16,2,Accuracy,Right,MA,0.0,3.0,0.0,3.0,898.4375,765.625,132.8125,235.3515625,530.2734375,,Left,238,Left,0.0,I I I
S16,1,Accuracy,Left,MA,0.0,2.0,1.0,1.0,570.80078125,471.6796875,99.12109375,471.6796875,0.0,,Right,239,Right,1.0,I C
S16,4,Accuracy,Right,SA,1.0,1.0,1.0,0.0,405.2734375,320.80078125,84.47265625,320.80078125,,,,240,Right,0.0,C
S16,1,Accuracy,Left,SA,0.0,1.0,0.0,1.0,543.9453125,398.4375,145.5078125,398.4375,,,,241,Right,0.0,I
S16,3,Accuracy,Right,SA,1.0,1.0,1.0,0.0,619.140625,496.58203125,122.55859375,496.58203125,,,,242,Right,0.0,C
S16,2,Accuracy,Left,SA,0.0,1.0,0.0,1.0,554.6875,431.15234375,123.53515625,431.15234375,,,,243,Right,0.0,I
S16,5,Accuracy,Left,SA,1.0,1.0,1.0,0.0,510.25390625,381.34765625,128.90625,381.34765625,,,,244,Left,0.0,C
S16,2,Accuracy,Right,MA,1.0,3.0,3.0,0.0,712.890625,627.9296875,84.9609375,416.50390625,211.42578125,,Right,245,Right,0.0,C C C
S16,2,Accuracy,Left,SA,0.0,1.0,0.0,1.0,475.09765625,328.125,146.97265625,328.125,,,,246,Right,0.0,I
S16,1,Accuracy,Right,SA,0.0,1.0,0.0,1.0,422.36328125,260.7421875,161.62109375,260.7421875,,,,247,Left,0.0,I
S16,5,Accuracy,Left,MA,1.0,3.0,2.0,1.0,863.28125,720.703125,142.578125,262.20703125,458.49609375,,Right,248,Left,1.0,I C C
S16,3,Accuracy,Right,SA,1.0,1.0,1.0,0.0,425.78125,324.21875,101.5625,324.21875,,,,249,Right,0.0,C
S16,2,Accuracy,Right,UT,,0.0,,,382.32421875,,,,,,,250,,,
S16,3,Accuracy,Left,UT,,0.0,,,764.16015625,,,,,,,251,,,
S16,1,Accuracy,Left,SA,1.0,1.0,1.0,0.0,572.75390625,463.37890625,109.375,463.37890625,,,,252,Left,0.0,C
S16,1,Accuracy,Left,SA,0.0,1.0,0.0,1.0,504.8828125,359.375,145.5078125,359.375,,,,253,Right,0.0,I
S16,3,Accuracy,Right,SA,0.0,1.0,0.0,1.0,632.32421875,471.19140625,161.1328125,471.19140625,,,,254,Left,0.0,I
S16,4,Accuracy,Right,MA,1.0,2.0,2.0,0.0,831.54296875,701.171875,130.37109375,473.6328125,227.5390625,,Right,255,Right,0.0,C C
S16,5,Accuracy,Right,SA,1.0,1.0,1.0,0.0,430.6640625,321.77734375,108.88671875,321.77734375,,,,256,Right,0.0,C
S16,4,Accuracy,Left,MA,1.0,2.0,1.0,1.0,592.7734375,466.796875,125.9765625,305.17578125,161.62109375,,Right,257,Left,1.0,I C
S16,3,Accuracy,Left,MA,1.0,2.0,2.0,0.0,627.44140625,477.05078125,150.390625,283.203125,193.84765625,,Left,258,Left,0.0,C C
S16,3,Accuracy,Right,SA,1.0,1.0,1.0,0.0,426.26953125,322.265625,104.00390625,322.265625,,,,259,Right,0.0,C
S16,4,Accuracy,Right,MA,1.0,4.0,3.0,1.0,933.10546875,860.83984375,72.265625,361.328125,499.51171875,,Right,260,Right,2.0,C I C C
S16,2,Accuracy,Right,MA,1.0,5.0,5.0,0.0,842.7734375,782.2265625,60.546875,324.70703125,457.51953125,,Right,261,Right,0.0,C C C C C
S16,4,Accuracy,Left,SA,1.0,1.0,1.0,0.0,420.41015625,269.53125,150.87890625,269.53125,,,,262,Left,0.0,C
S16,2,Accuracy,Right,SA,1.0,1.0,1.0,0.0,404.296875,279.78515625,124.51171875,279.78515625,,,,263,Right,0.0,C
S16,1,Accuracy,Right,SA,0.0,1.0,0.0,1.0,440.4296875,291.9921875,148.4375,291.9921875,,,,264,Left,0.0,I
S16,2,Accuracy,Left,MA,1.0,2.0,2.0,0.0,788.57421875,698.2421875,90.33203125,450.68359375,247.55859375,,Left,265,Left,0.0,C C
S16,5,Accuracy,Left,SA,1.0,1.0,1.0,0.0,408.69140625,277.34375,131.34765625,277.34375,,,,266,Left,0.0,C
S16,4,Accuracy,Right,SA,1.0,1.0,1.0,0.0,469.23828125,314.453125,154.78515625,314.453125,,,,267,Right,0.0,C
S16,3,Accuracy,Left,UT,,0.0,,,434.5703125,,,,,,,268,,,
S16,1,Accuracy,Left,SA,1.0,1.0,1.0,0.0,549.31640625,417.96875,131.34765625,417.96875,,,,269,Left,0.0,C
S16,1,Accuracy,Right,MA,1.0,2.0,2.0,0.0,630.37109375,530.2734375,100.09765625,348.6328125,181.640625,,Right,270,Right,0.0,C C
S16,3,Accuracy,Right,SA,0.0,1.0,0.0,1.0,443.84765625,306.15234375,137.6953125,306.15234375,,,,271,Left,0.0,I
S16,3,Accuracy,Right,SA,1.0,1.0,1.0,0.0,479.98046875,349.12109375,130.859375,349.12109375,,,,272,Right,0.0,C
S16,5,Accuracy,Right,SA,1.0,1.0,1.0,0.0,492.1875,351.5625,140.625,351.5625,,,,273,Right,0.0,C
S16,3,Accuracy,Left,MA,0.0,3.0,0.0,3.0,744.62890625,642.578125,102.05078125,263.18359375,379.39453125,,Right,274,Right,0.0,I I I
S16,5,Accuracy,Right,SA,1.0,1.0,1.0,0.0,448.73046875,311.03515625,137.6953125,311.03515625,,,,275,Right,0.0,C
S16,4,Accuracy,Right,SA,1.0,1.0,1.0,0.0,416.50390625,280.2734375,136.23046875,280.2734375,,,,276,Right,0.0,C
S16,5,Accuracy,Left,MA,1.0,3.0,3.0,0.0,792.48046875,719.7265625,72.75390625,267.08984375,452.63671875,,Left,277,Left,0.0,C C C
S16,1,Accuracy,Right,SA,1.0,1.0,1.0,0.0,522.4609375,391.6015625,130.859375,391.6015625,,,,278,Right,0.0,C
S16,4,Accuracy,Left,SA,1.0,1.0,1.0,0.0,395.99609375,269.53125,126.46484375,269.53125,,,,279,Left,0.0,C
S16,1,Accuracy,Right,MA,1.0,2.0,1.0,1.0,536.1328125,404.296875,131.8359375,248.53515625,155.76171875,253.90625,Left,280,Right,1.0,I C
S16,4,Accuracy,Right,SA,1.0,1.0,1.0,0.0,368.65234375,257.8125,110.83984375,257.8125,,,,281,Right,0.0,C
S16,4,Accuracy,Right,SA,1.0,1.0,1.0,0.0,337.890625,229.4921875,108.3984375,229.4921875,,,,282,Right,0.0,C
S16,2,Accuracy,Right,MA,1.0,3.0,1.0,2.0,736.81640625,622.55859375,114.2578125,144.04296875,478.515625,596.6796875,Left,283,Right,1.0,I I C
S16,1,Accuracy,Left,SA,1.0,1.0,1.0,0.0,321.77734375,222.65625,99.12109375,222.65625,,,,284,Left,0.0,C
S16,5,Accuracy,Left,SA,1.0,1.0,1.0,0.0,467.7734375,330.078125,137.6953125,330.078125,,,,285,Left,0.0,C
S16,3,Accuracy,Left,MA,0.0,2.0,1.0,1.0,418.9453125,328.125,90.8203125,246.09375,82.03125,,Left,286,Right,1.0,C I
S16,4,Accuracy,Left,SA,1.0,1.0,1.0,0.0,461.9140625,235.83984375,226.07421875,235.83984375,,,,287,Left,0.0,C
S16,5,Accuracy,Right,MA,1.0,2.0,2.0,0.0,566.40625,432.12890625,134.27734375,234.86328125,197.265625,,Right,288,Right,0.0,C C
S16,4,Accuracy,Right,MA,1.0,2.0,2.0,0.0,498.046875,466.30859375,31.73828125,345.703125,120.60546875,,Right,289,Right,0.0,C C
S16,1,Accuracy,Left,SA,0.0,1.0,0.0,1.0,400.87890625,277.83203125,123.046875,277.83203125,,,,290,Right,0.0,I
S16,3,Accuracy,Left,SA,1.0,1.0,1.0,0.0,344.23828125,204.58984375,139.6484375,204.58984375,,,,291,Left,0.0,C
S16,1,Accuracy,Left,MA,0.0,2.0,0.0,2.0,409.1796875,340.8203125,68.359375,175.78125,165.0390625,,Right,292,Right,0.0,I I
S16,3,Accuracy,Right,MA,1.0,2.0,1.0,1.0,629.39453125,517.578125,111.81640625,140.13671875,377.44140625,415.52734375,Left,293,Right,1.0,I C
S16,3,Accuracy,Left,SA,1.0,1.0,1.0,0.0,411.62109375,232.91015625,178.7109375,232.91015625,,,,294,Left,0.0,C
S16,5,Accuracy,Right,SA,1.0,1.0,1.0,0.0,327.1484375,223.6328125,103.515625,223.6328125,,,,295,Right,0.0,C
S16,4,Accuracy,Left,SA,1.0,1.0,1.0,0.0,340.8203125,221.19140625,119.62890625,221.19140625,,,,296,Left,0.0,C
S16,2,Accuracy,Left,SA,0.0,1.0,0.0,1.0,297.36328125,206.54296875,90.8203125,206.54296875,,,,297,Right,0.0,I
S16,1,Accuracy,Right,SA,0.0,1.0,0.0,1.0,344.7265625,207.03125,137.6953125,207.03125,,,,298,Left,0.0,I
S16,5,Accuracy,Left,MA,1.0,4.0,3.0,1.0,698.2421875,591.796875,106.4453125,213.8671875,377.9296875,,Right,299,Left,1.0,I C C C
S16,3,Accuracy,Left,MA,0.0,2.0,1.0,1.0,469.23828125,371.58203125,97.65625,253.90625,117.67578125,170.8984375,Left,300,Right,1.0,C I
S16,5,Speed,Right,SA,1.0,1.0,1.0,0.0,403.3203125,331.0546875,72.265625,331.0546875,,,,301,Right,0.0,C
S16,1,Speed,Right,MA,1.0,2.0,1.0,1.0,346.19140625,252.44140625,93.75,112.79296875,139.6484375,,Left,302,Right,1.0,I C
S16,3,Speed,Right,MA,0.0,3.0,1.0,2.0,400.390625,306.640625,93.75,110.83984375,195.80078125,243.65234375,Left,303,Left,2.0,I C I
S16,5,Speed,Right,SA,1.0,1.0,1.0,0.0,214.84375,129.39453125,85.44921875,129.39453125,,,,304,Right,0.0,C
S16,4,Speed,Right,SA,1.0,1.0,1.0,0.0,307.6171875,217.7734375,89.84375,217.7734375,,,,305,Right,0.0,C
S16,1,Speed,Left,MA,1.0,2.0,1.0,1.0,430.17578125,339.35546875,90.8203125,223.14453125,116.2109375,149.4140625,Right,306,Left,1.0,I C
S16,3,Speed,Right,SA,1.0,1.0,1.0,0.0,304.19921875,214.35546875,89.84375,214.35546875,,,,307,Right,0.0,C
S16,4,Speed,Right,SA,1.0,1.0,1.0,0.0,337.40234375,240.72265625,96.6796875,240.72265625,,,,308,Right,0.0,C
S16,4,Speed,Right,MA,1.0,2.0,1.0,1.0,357.421875,264.6484375,92.7734375,219.23828125,45.41015625,,Left,309,Right,1.0,I C
S16,4,Speed,Left,MA,1.0,2.0,1.0,1.0,538.0859375,443.359375,94.7265625,199.70703125,243.65234375,308.59375,Right,310,Left,1.0,I C
S16,5,Speed,Left,MA,1.0,2.0,1.0,1.0,417.48046875,297.36328125,120.1171875,214.84375,82.51953125,,Right,311,Left,1.0,I C
S16,2,Speed,Right,MA,1.0,2.0,1.0,1.0,368.65234375,286.1328125,82.51953125,120.60546875,165.52734375,161.1328125,Left,312,Right,1.0,I C
S16,1,Speed,Left,SA,1.0,1.0,1.0,0.0,302.734375,187.5,115.234375,187.5,,,,313,Left,0.0,C
S16,1,Speed,Left,MA,0.0,2.0,0.0,2.0,446.2890625,333.0078125,113.28125,146.97265625,186.03515625,,Right,314,Right,0.0,I I
S16,4,Speed,Left,MA,1.0,2.0,2.0,0.0,574.21875,455.078125,119.140625,203.61328125,251.46484375,,Left,315,Left,0.0,C C
S16,4,Speed,Right,MA,1.0,2.0,1.0,1.0,240.234375,145.01953125,95.21484375,128.41796875,16.6015625,,Left,316,Right,1.0,I C
S16,3,Speed,Left,SA,1.0,1.0,1.0,0.0,247.55859375,122.55859375,125.0,122.55859375,,,,317,Left,0.0,C
S16,4,Speed,Left,MA,1.0,2.0,1.0,1.0,600.5859375,511.23046875,89.35546875,144.04296875,367.1875,431.15234375,Right,318,Left,1.0,I C
S16,1,Speed,Right,MA,1.0,4.0,2.0,2.0,318.359375,239.74609375,78.61328125,117.1875,122.55859375,,Left,319,Right,3.0,I C I C
S16,2,Speed,Left,SA,1.0,1.0,1.0,0.0,292.48046875,182.6171875,109.86328125,182.6171875,,,,320,Left,0.0,C
S16,1,Speed,Right,MA,1.0,2.0,2.0,0.0,537.59765625,344.7265625,192.87109375,142.08984375,202.63671875,,Right,321,Right,0.0,C C
S16,2,Speed,Left,SA,1.0,1.0,1.0,0.0,314.94140625,148.4375,166.50390625,148.4375,,,,322,Left,0.0,C
S16,5,Speed,Left,SA,0.0,1.0,0.0,1.0,283.203125,177.734375,105.46875,177.734375,,,,323,Right,0.0,I
S16,4,Speed,Right,MA,0.0,2.0,0.0,2.0,305.6640625,208.49609375,97.16796875,114.74609375,93.75,,Left,324,Left,0.0,I I
S16,2,Speed,Left,MA,0.0,3.0,1.0,2.0,724.12109375,615.234375,108.88671875,223.14453125,392.08984375,,Left,325,Right,1.0,C I I
S16,3,Speed,Left,SA,1.0,1.0,1.0,0.0,366.69921875,218.75,147.94921875,218.75,,,,326,Left,0.0,C
S16,3,Speed,Right,SA,1.0,1.0,1.0,0.0,295.41015625,172.36328125,123.046875,172.36328125,,,,327,Right,0.0,C
S16,5,Speed,Left,MA,1.0,3.0,3.0,0.0,614.2578125,565.4296875,48.828125,275.87890625,289.55078125,,Left,328,Left,0.0,C C C
S16,5,Speed,Left,SA,1.0,1.0,1.0,0.0,387.20703125,277.83203125,109.375,277.83203125,,,,329,Left,0.0,C
S16,5,Speed,Left,SA,1.0,1.0,1.0,0.0,399.90234375,213.37890625,186.5234375,213.37890625,,,,330,Left,0.0,C
S16,3,Speed,Right,MA,1.0,3.0,2.0,1.0,566.40625,480.46875,85.9375,236.81640625,243.65234375,,Left,331,Right,1.0,I C C
S16,2,Speed,Right,SA,0.0,1.0,0.0,1.0,270.99609375,167.48046875,103.515625,167.48046875,,,,332,Left,0.0,I
S16,3,Speed,Right,SA,1.0,1.0,1.0,0.0,298.828125,208.984375,89.84375,208.984375,,,,333,Right,0.0,C
S16,1,Speed,Left,SA,1.0,1.0,1.0,0.0,274.4140625,131.8359375,142.578125,131.8359375,,,,334,Left,0.0,C
S16,1,Speed,Right,MA,1.0,2.0,1.0,1.0,259.765625,138.671875,121.09375,138.671875,0.0,,Right,335,Right,1.0,C I
S16,2,Speed,Right,SA,0.0,1.0,0.0,1.0,256.34765625,144.04296875,112.3046875,144.04296875,,,,336,Left,0.0,I
S16,1,Speed,Left,MA,1.0,2.0,2.0,0.0,269.53125,157.71484375,111.81640625,93.26171875,64.453125,,Left,337,Left,0.0,C C
S16,3,Speed,Left,SA,1.0,1.0,1.0,0.0,278.3203125,150.87890625,127.44140625,150.87890625,,,,338,Left,0.0,C
S16,5,Speed,Right,MA,1.0,3.0,3.0,0.0,666.9921875,541.50390625,125.48828125,243.1640625,298.33984375,,Right,339,Right,0.0,C C C
S16,5,Speed,Left,MA,1.0,2.0,1.0,1.0,410.64453125,311.03515625,99.609375,197.75390625,113.28125,,Right,340,Left,1.0,I C
S16,1,Speed,Left,MA,0.0,2.0,1.0,1.0,412.109375,307.6171875,104.4921875,248.046875,59.5703125,,Left,341,Right,1.0,C I
S16,2,Speed,Left,MA,0.0,2.0,1.0,1.0,430.6640625,317.87109375,112.79296875,192.3828125,125.48828125,,Left,342,Right,1.0,C I
S16,2,Speed,Right,MA,1.0,3.0,2.0,1.0,611.81640625,536.1328125,75.68359375,212.40234375,323.73046875,365.72265625,Left,343,Right,1.0,I C C
S16,3,Speed,Left,SA,1.0,1.0,1.0,0.0,277.83203125,166.015625,111.81640625,166.015625,,,,344,Left,0.0,C
S16,4,Speed,Right,SA,1.0,1.0,1.0,0.0,323.73046875,227.5390625,96.19140625,227.5390625,,,,345,Right,0.0,C
S16,4,Speed,Left,MA,1.0,3.0,2.0,1.0,583.0078125,493.1640625,89.84375,270.5078125,222.65625,288.57421875,Left,346,Left,2.0,C I C
S16,5,Speed,Right,MA,1.0,2.0,1.0,1.0,348.6328125,251.46484375,97.16796875,131.8359375,119.62890625,,Left,347,Right,1.0,I C
S16,1,Speed,Right,MA,1.0,4.0,2.0,2.0,562.01171875,491.69921875,70.3125,50.29296875,441.40625,373.53515625,Left,348,Right,1.0,I I C C
S16,3,Speed,Right,MA,0.0,2.0,0.0,2.0,552.24609375,437.01171875,115.234375,232.421875,204.58984375,,Left,349,Left,0.0,I I
S16,5,Speed,Right,MA,1.0,2.0,2.0,0.0,210.9375,122.0703125,88.8671875,25.87890625,96.19140625,,Right,350,Right,0.0,C C
S16,5,Speed,Right,MA,1.0,2.0,1.0,1.0,380.37109375,267.578125,112.79296875,76.171875,191.40625,241.2109375,Left,351,Right,1.0,I C
S16,3,Speed,Right,MA,1.0,3.0,2.0,1.0,557.12890625,458.0078125,99.12109375,126.46484375,331.54296875,,Left,352,Right,1.0,I C C
S16,5,Speed,Right,MA,1.0,4.0,2.0,2.0,478.02734375,386.23046875,91.796875,141.11328125,245.1171875,321.2890625,Left,353,Right,1.0,I I C C
S16,1,Speed,Left,MA,1.0,2.0,1.0,1.0,303.22265625,191.40625,111.81640625,191.40625,0.0,,Left,354,Left,1.0,C I
S16,2,Speed,Right,SA,1.0,1.0,1.0,0.0,252.44140625,137.6953125,114.74609375,137.6953125,,,,355,Right,0.0,C
S16,2,Speed,Right,SA,1.0,1.0,1.0,0.0,318.359375,190.91796875,127.44140625,190.91796875,,,,356,Right,0.0,C
S16,1,Speed,Right,SA,0.0,1.0,0.0,1.0,272.4609375,195.80078125,76.66015625,195.80078125,,,,357,Left,0.0,I
S16,5,Speed,Right,MA,1.0,2.0,2.0,0.0,523.92578125,401.85546875,122.0703125,184.08203125,217.7734375,,Right,358,Right,0.0,C C
S16,5,Speed,Right,SA,1.0,1.0,1.0,0.0,319.82421875,217.28515625,102.5390625,217.28515625,,,,359,Right,0.0,C
S16,4,Speed,Left,MA,0.0,2.0,1.0,1.0,266.11328125,163.0859375,103.02734375,103.515625,59.5703125,,Left,360,Right,1.0,C I
S16,3,Speed,Right,MA,1.0,2.0,2.0,0.0,372.0703125,279.296875,92.7734375,218.75,60.546875,,Right,361,Right,0.0,C C
S16,1,Speed,Right,MA,0.0,3.0,1.0,2.0,403.3203125,338.8671875,64.453125,207.03125,131.8359375,,Right,362,Left,1.0,C I I
S16,1,Speed,Right,SA,1.0,1.0,1.0,0.0,365.234375,250.9765625,114.2578125,250.9765625,,,,363,Right,0.0,C
S16,1,Speed,Left,MA,0.0,2.0,0.0,2.0,599.609375,489.74609375,109.86328125,176.7578125,312.98828125,,Right,364,Right,0.0,I I
S16,5,Speed,Left,SA,0.0,1.0,0.0,1.0,354.4921875,236.81640625,117.67578125,236.81640625,,,,365,Right,0.0,I
S16,3,Speed,Left,MA,1.0,2.0,1.0,1.0,390.13671875,247.55859375,142.578125,247.55859375,0.0,,Left,366,Left,1.0,C I
S16,2,Speed,Left,SA,0.0,1.0,0.0,1.0,332.03125,215.8203125,116.2109375,215.8203125,,,,367,Right,0.0,I
S16,4,Speed,Left,MA,1.0,2.0,2.0,0.0,550.78125,424.31640625,126.46484375,200.68359375,223.6328125,,Left,368,Left,0.0,C C
S16,4,Speed,Left,MA,1.0,2.0,1.0,1.0,632.32421875,516.6015625,115.72265625,229.00390625,287.59765625,389.16015625,Right,369,Left,1.0,I C
S16,4,Speed,Left,SA,1.0,1.0,1.0,0.0,415.0390625,267.578125,147.4609375,267.578125,,,,370,Left,0.0,C
S16,5,Speed,Right,SA,1.0,1.0,1.0,0.0,415.0390625,247.0703125,167.96875,247.0703125,,,,371,Right,0.0,C
S16,5,Speed,Left,MA,1.0,2.0,1.0,1.0,371.09375,270.01953125,101.07421875,269.53125,0.48828125,,Right,372,Left,1.0,I C
S16,1,Speed,Right,MA,0.0,2.0,1.0,1.0,398.4375,259.27734375,139.16015625,181.15234375,78.125,,Right,373,Left,1.0,C I
S16,1,Speed,Left,MA,0.0,3.0,0.0,3.0,830.56640625,726.07421875,104.4921875,321.77734375,404.296875,,Right,374,Right,0.0,I I I
S16,3,Speed,Left,SA,1.0,1.0,1.0,0.0,235.83984375,111.328125,124.51171875,111.328125,,,,375,Left,0.0,C
S16,3,Speed,Right,MA,1.0,2.0,1.0,1.0,242.1875,128.41796875,113.76953125,83.49609375,44.921875,,Left,376,Right,1.0,I C
S16,2,Speed,Left,MA,0.0,2.0,1.0,1.0,346.19140625,239.74609375,106.4453125,133.7890625,105.95703125,,Left,377,Right,1.0,C I
S16,4,Speed,Right,SA,0.0,1.0,0.0,1.0,241.69921875,142.578125,99.12109375,142.578125,,,,378,Left,0.0,I
S16,3,Speed,Left,SA,1.0,1.0,1.0,0.0,479.98046875,361.328125,118.65234375,361.328125,,,,379,Left,0.0,C
S16,1,Speed,Right,MA,1.0,2.0,2.0,0.0,625.9765625,472.16796875,153.80859375,270.01953125,202.1484375,,Right,380,Right,0.0,C C
S16,2,Speed,Left,SA,1.0,1.0,1.0,0.0,325.68359375,200.1953125,125.48828125,200.1953125,,,,381,Left,0.0,C
S16,4,Speed,Right,MA,1.0,2.0,2.0,0.0,464.35546875,387.20703125,77.1484375,175.29296875,211.9140625,,Right,382,Right,0.0,C C
S16,5,Speed,Left,MA,1.0,4.0,4.0,0.0,816.40625,760.25390625,56.15234375,246.09375,514.16015625,,Left,383,Left,0.0,C C C C
S16,4,Speed,Left,SA,0.0,1.0,0.0,1.0,321.77734375,222.65625,99.12109375,222.65625,,,,384,Right,0.0,I
S16,3,Speed,Right,SA,1.0,1.0,1.0,0.0,403.3203125,284.1796875,119.140625,284.1796875,,,,385,Right,0.0,C
S16,1,Speed,Left,SA,1.0,1.0,1.0,0.0,330.078125,157.2265625,172.8515625,157.2265625,,,,386,Left,0.0,C
S16,3,Speed,Left,SA,0.0,1.0,0.0,1.0,298.33984375,193.359375,104.98046875,193.359375,,,,387,Right,0.0,I
S16,2,Speed,Right,MA,1.0,3.0,3.0,0.0,795.41015625,717.7734375,77.63671875,294.921875,422.8515625,,Right,388,Right,0.0,C C C
S16,3,Speed,Left,MA,1.0,3.0,2.0,1.0,865.234375,663.57421875,201.66015625,230.46875,433.10546875,522.94921875,Right,389,Left,1.0,I C C
S16,4,Speed,Left,MA,0.0,2.0,1.0,1.0,236.81640625,152.83203125,83.984375,149.4140625,3.41796875,,Left,390,Right,1.0,C I
S16,2,Speed,Left,SA,1.0,1.0,1.0,0.0,304.19921875,187.5,116.69921875,187.5,,,,391,Left,0.0,C
S16,2,Speed,Right,SA,1.0,1.0,1.0,0.0,232.91015625,148.4375,84.47265625,148.4375,,,,392,Right,0.0,C
S16,2,Speed,Right,SA,0.0,1.0,0.0,1.0,263.18359375,131.34765625,131.8359375,131.34765625,,,,393,Left,0.0,I
S16,3,Speed,Left,SA,0.0,1.0,0.0,1.0,453.61328125,361.81640625,91.796875,361.81640625,,,,394,Right,0.0,I
S16,4,Speed,Right,SA,1.0,1.0,1.0,0.0,293.9453125,206.0546875,87.890625,206.0546875,,,,395,Right,0.0,C
S16,5,Speed,Left,SA,1.0,1.0,1.0,0.0,343.26171875,193.84765625,149.4140625,193.84765625,,,,396,Left,0.0,C
S16,2,Speed,Right,SA,1.0,1.0,1.0,0.0,319.82421875,220.21484375,99.609375,220.21484375,,,,397,Right,0.0,C
S16,2,Speed,Left,MA,0.0,2.0,1.0,1.0,349.609375,207.51953125,142.08984375,97.65625,109.86328125,183.59375,Left,398,Right,1.0,C I
S16,2,Speed,Left,SA,1.0,1.0,1.0,0.0,366.69921875,149.4140625,217.28515625,149.4140625,,,,399,Left,0.0,C
S16,4,Speed,Right,MA,1.0,2.0,1.0,1.0,452.1484375,335.9375,116.2109375,296.38671875,39.55078125,,Left,400,Right,1.0,I C
S16,1,Speed,Left,SA,0.0,1.0,0.0,1.0,470.21484375,396.484375,73.73046875,396.484375,,,,401,Right,0.0,I
S16,5,Speed,Left,SA,1.0,1.0,1.0,0.0,345.703125,259.765625,85.9375,259.765625,,,,402,Left,0.0,C
S16,4,Speed,Right,SA,1.0,1.0,1.0,0.0,335.44921875,227.05078125,108.3984375,227.05078125,,,,403,Right,0.0,C
S16,4,Speed,Left,SA,1.0,1.0,1.0,0.0,309.5703125,143.06640625,166.50390625,143.06640625,,,,404,Left,0.0,C
S16,3,Speed,Right,SA,1.0,1.0,1.0,0.0,218.26171875,136.23046875,82.03125,136.23046875,,,,405,Right,0.0,C
S16,5,Speed,Right,MA,1.0,2.0,1.0,1.0,462.40234375,358.3984375,104.00390625,121.09375,237.3046875,344.7265625,Left,406,Right,1.0,I C
S16,1,Speed,Right,SA,0.0,1.0,0.0,1.0,222.65625,97.16796875,125.48828125,97.16796875,,,,407,Left,0.0,I
S16,4,Speed,Left,MA,0.0,3.0,0.0,3.0,440.91796875,354.4921875,86.42578125,166.9921875,187.5,,Right,408,Right,0.0,I I I
S16,1,Speed,Right,MA,1.0,3.0,2.0,1.0,511.23046875,373.046875,138.18359375,216.796875,156.25,,Right,409,Right,1.0,C C I
S16,1,Speed,Right,MA,1.0,5.0,2.0,3.0,576.171875,489.74609375,86.42578125,48.828125,440.91796875,437.5,Left,410,Right,3.0,I I C I C
S16,4,Speed,Left,SA,1.0,1.0,1.0,0.0,334.47265625,222.65625,111.81640625,222.65625,,,,411,Left,0.0,C
S16,2,Speed,Right,SA,1.0,1.0,1.0,0.0,403.3203125,316.40625,86.9140625,316.40625,,,,412,Right,0.0,C
S16,2,Speed,Right,SA,0.0,1.0,0.0,1.0,297.36328125,208.0078125,89.35546875,208.0078125,,,,413,Left,0.0,I
S16,3,Speed,Left,SA,1.0,1.0,1.0,0.0,355.46875,188.96484375,166.50390625,188.96484375,,,,414,Left,0.0,C
S16,3,Speed,Left,MA,0.0,3.0,1.0,2.0,365.234375,291.9921875,73.2421875,161.62109375,130.37109375,179.6875,Right,415,Right,2.0,I C I
S16,3,Speed,Left,MA,1.0,2.0,1.0,1.0,614.74609375,487.79296875,126.953125,278.3203125,209.47265625,310.05859375,Right,416,Left,1.0,I C
S16,4,Speed,Right,SA,1.0,1.0,1.0,0.0,304.6875,205.078125,99.609375,205.078125,,,,417,Right,0.0,C
S16,5,Speed,Left,MA,1.0,2.0,1.0,1.0,358.3984375,230.95703125,127.44140625,172.36328125,58.59375,134.765625,Right,418,Left,1.0,I C
S16,1,Speed,Right,MA,0.0,3.0,1.0,2.0,486.81640625,383.30078125,103.515625,121.09375,262.20703125,,Right,419,Left,1.0,C I I
S16,1,Speed,Left,SA,0.0,1.0,0.0,1.0,260.25390625,148.92578125,111.328125,148.92578125,,,,420,Right,0.0,I
S16,2,Speed,Left,SA,1.0,1.0,1.0,0.0,291.9921875,167.96875,124.0234375,167.96875,,,,421,Left,0.0,C
S16,1,Speed,Right,MA,1.0,3.0,1.0,2.0,602.5390625,497.0703125,105.46875,205.56640625,291.50390625,335.44921875,Left,422,Right,1.0,I I C
S16,4,Speed,Left,MA,1.0,3.0,3.0,0.0,561.03515625,465.8203125,95.21484375,239.2578125,226.5625,,Left,423,Left,0.0,C C C
S16,4,Speed,Right,MA,1.0,2.0,2.0,0.0,452.1484375,363.76953125,88.37890625,182.6171875,181.15234375,,Right,424,Right,0.0,C C
S16,4,Speed,Left,SA,1.0,1.0,1.0,0.0,223.6328125,141.11328125,82.51953125,141.11328125,,,,425,Left,0.0,C
S16,1,Speed,Left,MA,0.0,2.0,1.0,1.0,229.4921875,127.44140625,102.05078125,112.79296875,14.6484375,,Left,426,Right,1.0,C I
S16,2,Speed,Left,SA,1.0,1.0,1.0,0.0,185.546875,102.05078125,83.49609375,102.05078125,,,,427,Left,0.0,C
S16,2,Speed,Left,SA,0.0,1.0,0.0,1.0,279.296875,161.62109375,117.67578125,161.62109375,,,,428,Right,0.0,I
S16,4,Speed,Left,SA,1.0,1.0,1.0,0.0,226.07421875,126.953125,99.12109375,126.953125,,,,429,Left,0.0,C
S16,1,Speed,Right,SA,1.0,1.0,1.0,0.0,226.5625,123.046875,103.515625,123.046875,,,,430,Right,0.0,C
S16,3,Speed,Left,MA,0.0,2.0,1.0,1.0,284.66796875,182.12890625,102.5390625,172.36328125,9.765625,127.44140625,Left,431,Right,1.0,C I
S16,5,Speed,Left,SA,1.0,1.0,1.0,0.0,268.5546875,154.78515625,113.76953125,154.78515625,,,,432,Left,0.0,C
S16,2,Speed,Left,SA,0.0,1.0,0.0,1.0,290.52734375,158.69140625,131.8359375,158.69140625,,,,433,Right,0.0,I
S16,3,Speed,Left,SA,1.0,1.0,1.0,0.0,271.97265625,109.375,162.59765625,109.375,,,,434,Left,0.0,C
S16,2,Speed,Right,MA,1.0,3.0,3.0,0.0,423.828125,356.93359375,66.89453125,114.2578125,242.67578125,,Right,435,Right,0.0,C C C
S16,3,Speed,Left,SA,1.0,1.0,1.0,0.0,287.59765625,126.953125,160.64453125,126.953125,,,,436,Left,0.0,C
S16,1,Speed,Right,SA,1.0,1.0,1.0,0.0,230.46875,130.37109375,100.09765625,130.37109375,,,,437,Right,0.0,C
S16,4,Speed,Right,SA,0.0,1.0,0.0,1.0,241.2109375,92.7734375,148.4375,92.7734375,,,,438,Left,0.0,I
S16,4,Speed,Left,SA,1.0,1.0,1.0,0.0,238.76953125,116.69921875,122.0703125,116.69921875,,,,439,Left,0.0,C
S16,5,Speed,Left,MA,1.0,3.0,2.0,1.0,415.52734375,339.84375,75.68359375,123.046875,216.796875,262.20703125,Left,440,Left,2.0,C I C
S16,4,Speed,Right,SA,0.0,1.0,0.0,1.0,298.828125,186.03515625,112.79296875,186.03515625,,,,441,Left,0.0,I
S16,5,Speed,Right,SA,1.0,1.0,1.0,0.0,362.3046875,268.5546875,93.75,268.5546875,,,,442,Right,0.0,C
S16,2,Speed,Right,MA,1.0,3.0,3.0,0.0,598.6328125,479.4921875,119.140625,224.609375,254.8828125,,Right,443,Right,0.0,C C C
S16,1,Speed,Left,SA,0.0,1.0,0.0,1.0,385.7421875,293.45703125,92.28515625,293.45703125,,,,444,Right,0.0,I
S16,4,Speed,Left,SA,1.0,1.0,1.0,0.0,321.2890625,230.95703125,90.33203125,230.95703125,,,,445,Left,0.0,C
S16,5,Speed,Right,MA,1.0,2.0,2.0,0.0,312.01171875,261.71875,50.29296875,173.828125,87.890625,,Right,446,Right,0.0,C C
S16,5,Speed,Right,SA,1.0,1.0,1.0,0.0,264.6484375,185.546875,79.1015625,185.546875,,,,447,Right,0.0,C
S16,3,Speed,Right,MA,1.0,4.0,2.0,2.0,509.765625,434.5703125,75.1953125,114.74609375,319.82421875,,Left,448,Right,3.0,I C I C
S16,3,Speed,Left,SA,0.0,1.0,0.0,1.0,418.45703125,310.546875,107.91015625,310.546875,,,,449,Right,0.0,I
S16,1,Speed,Left,MA,0.0,4.0,1.0,3.0,796.38671875,706.54296875,89.84375,159.1796875,547.36328125,589.35546875,Left,450,Right,1.0,C I I I
S16,2,Speed,Left,SA,0.0,1.0,0.0,1.0,347.16796875,260.7421875,86.42578125,260.7421875,,,,451,Right,0.0,I
S16,4,Speed,Left,SA,1.0,1.0,1.0,0.0,275.390625,141.11328125,134.27734375,141.11328125,,,,452,Left,0.0,C
S16,5,Speed,Right,SA,1.0,1.0,1.0,0.0,250.9765625,151.3671875,99.609375,151.3671875,,,,453,Right,0.0,C
S16,3,Speed,Left,MA,1.0,2.0,2.0,0.0,494.140625,356.4453125,137.6953125,176.7578125,179.6875,,Left,454,Left,0.0,C C
S16,3,Speed,Right,SA,1.0,1.0,1.0,0.0,240.234375,147.94921875,92.28515625,147.94921875,,,,455,Right,0.0,C
S16,5,Speed,Right,MA,1.0,2.0,1.0,1.0,403.80859375,284.1796875,119.62890625,206.0546875,78.125,179.19921875,Left,456,Right,1.0,I C
S16,2,Speed,Left,MA,0.0,3.0,2.0,1.0,585.9375,484.86328125,101.07421875,196.77734375,288.0859375,358.3984375,Left,457,Right,1.0,C C I
S16,3,Speed,Right,MA,1.0,2.0,1.0,1.0,347.65625,268.06640625,79.58984375,148.92578125,119.140625,160.64453125,Left,458,Right,1.0,I C
S16,1,Speed,Right,MA,0.0,3.0,1.0,2.0,394.04296875,356.4453125,37.59765625,192.87109375,163.57421875,,Left,459,Left,2.0,I C I
S16,1,Speed,Left,SA,0.0,1.0,0.0,1.0,253.41796875,162.109375,91.30859375,162.109375,,,,460,Right,0.0,I
S16,4,Speed,Right,SA,1.0,1.0,1.0,0.0,325.1953125,230.95703125,94.23828125,230.95703125,,,,461,Right,0.0,C
S16,5,Speed,Left,MA,1.0,3.0,2.0,1.0,382.32421875,274.90234375,107.421875,131.34765625,143.5546875,,Left,462,Left,2.0,C I C
S16,1,Speed,Right,MA,1.0,2.0,2.0,0.0,305.6640625,250.9765625,54.6875,130.37109375,120.60546875,,Right,463,Right,0.0,C C
S16,1,Speed,Left,SA,0.0,1.0,0.0,1.0,331.0546875,230.46875,100.5859375,230.46875,,,,464,Right,0.0,I
S16,2,Speed,Left,MA,0.0,2.0,1.0,1.0,536.62109375,411.62109375,125.0,117.67578125,293.9453125,404.78515625,Left,465,Right,1.0,C I
S16,2,Speed,Left,MA,0.0,2.0,1.0,1.0,441.89453125,345.21484375,96.6796875,192.3828125,152.83203125,211.42578125,Left,466,Right,1.0,C I
S16,2,Speed,Right,SA,0.0,1.0,0.0,1.0,284.1796875,160.15625,124.0234375,160.15625,,,,467,Left,0.0,I
S16,3,Speed,Left,MA,1.0,2.0,2.0,0.0,272.94921875,186.5234375,86.42578125,105.46875,81.0546875,,Left,468,Left,0.0,C C
S16,1,Speed,Left,SA,0.0,1.0,0.0,1.0,315.4296875,206.54296875,108.88671875,206.54296875,,,,469,Right,0.0,I
S16,2,Speed,Right,MA,1.0,2.0,1.0,1.0,346.19140625,259.27734375,86.9140625,210.9375,48.33984375,,Left,470,Right,1.0,I C
S16,3,Speed,Right,MA,1.0,2.0,1.0,1.0,373.046875,296.38671875,76.66015625,179.6875,116.69921875,,Left,471,Right,1.0,I C
S16,5,Speed,Left,MA,1.0,2.0,2.0,0.0,450.68359375,360.3515625,90.33203125,278.80859375,81.54296875,,Left,472,Left,0.0,C C
S16,5,Speed,Right,SA,1.0,1.0,1.0,0.0,272.4609375,155.2734375,117.1875,155.2734375,,,,473,Right,0.0,C
S16,3,Speed,Left,MA,1.0,4.0,2.0,2.0,525.87890625,410.15625,115.72265625,128.90625,281.25,375.48828125,Right,474,Left,3.0,I C I C
S16,2,Speed,Right,MA,1.0,2.0,1.0,1.0,630.37109375,524.4140625,105.95703125,177.734375,346.6796875,421.875,Left,475,Right,1.0,I C
S16,2,Speed,Right,SA,1.0,1.0,1.0,0.0,467.7734375,358.88671875,108.88671875,358.88671875,,,,476,Right,0.0,C
S16,2,Speed,Left,SA,1.0,1.0,1.0,0.0,455.56640625,286.1328125,169.43359375,286.1328125,,,,477,Left,0.0,C
S16,3,Speed,Right,SA,1.0,1.0,1.0,0.0,410.64453125,314.453125,96.19140625,314.453125,,,,478,Right,0.0,C
S16,4,Speed,Left,SA,1.0,1.0,1.0,0.0,382.8125,253.90625,128.90625,253.90625,,,,479,Left,0.0,C
S16,5,Speed,Left,MA,1.0,2.0,2.0,0.0,626.46484375,515.13671875,111.328125,328.61328125,186.5234375,,Left,480,Left,0.0,C C
S16,1,Speed,Left,SA,0.0,1.0,0.0,1.0,328.125,214.84375,113.28125,214.84375,,,,481,Right,0.0,I
S16,5,Speed,Right,MA,1.0,2.0,2.0,0.0,520.01953125,439.453125,80.56640625,219.7265625,219.7265625,,Right,482,Right,0.0,C C
S16,2,Speed,Right,SA,1.0,1.0,1.0,0.0,330.078125,229.4921875,100.5859375,229.4921875,,,,483,Right,0.0,C
S16,3,Speed,Right,SA,1.0,1.0,1.0,0.0,345.703125,230.46875,115.234375,230.46875,,,,484,Right,0.0,C
S16,5,Speed,Right,SA,1.0,1.0,1.0,0.0,322.265625,224.12109375,98.14453125,224.12109375,,,,485,Right,0.0,C
S16,5,Speed,Left,MA,1.0,2.0,1.0,1.0,358.3984375,264.6484375,93.75,200.68359375,63.96484375,165.0390625,Right,486,Left,1.0,I C
S16,5,Speed,Right,SA,1.0,1.0,1.0,0.0,268.5546875,168.45703125,100.09765625,168.45703125,,,,487,Right,0.0,C
S16,4,Speed,Right,SA,1.0,1.0,1.0,0.0,282.71484375,196.2890625,86.42578125,196.2890625,,,,488,Right,0.0,C
S16,3,Speed,Right,MA,1.0,2.0,2.0,0.0,566.40625,494.62890625,71.77734375,233.3984375,261.23046875,,Right,489,Right,0.0,C C
S16,5,Speed,Left,MA,1.0,3.0,2.0,1.0,452.63671875,351.07421875,101.5625,243.65234375,107.421875,187.98828125,Right,490,Left,1.0,I C C
S16,3,Speed,Right,MA,1.0,2.0,1.0,1.0,338.37890625,236.328125,102.05078125,203.61328125,32.71484375,,Left,491,Right,1.0,I C
S16,3,Speed,Right,SA,1.0,1.0,1.0,0.0,348.14453125,250.0,98.14453125,250.0,,,,492,Right,0.0,C
S16,1,Speed,Right,MA,1.0,6.0,5.0,1.0,755.859375,713.8671875,41.9921875,145.99609375,567.87109375,,Left,493,Right,1.0,I C C C C C
S16,5,Speed,Left,SA,1.0,1.0,1.0,0.0,290.0390625,194.3359375,95.703125,194.3359375,,,,494,Left,0.0,C
S16,1,Speed,Left,SA,0.0,1.0,0.0,1.0,231.4453125,162.59765625,68.84765625,162.59765625,,,,495,Right,0.0,I
S16,4,Speed,Right,SA,1.0,1.0,1.0,0.0,293.45703125,205.078125,88.37890625,205.078125,,,,496,Right,0.0,C
S16,2,Speed,Right,SA,0.0,1.0,0.0,1.0,219.23828125,127.44140625,91.796875,127.44140625,,,,497,Left,0.0,I
S16,2,Speed,Left,SA,0.0,1.0,0.0,1.0,306.640625,223.6328125,83.0078125,223.6328125,,,,498,Right,0.0,I
S16,4,Speed,Right,SA,1.0,1.0,1.0,0.0,328.125,236.328125,91.796875,236.328125,,,,499,Right,0.0,C
S16,4,Speed,Right,SA,1.0,1.0,1.0,0.0,306.15234375,218.75,87.40234375,218.75,,,,500,Right,0.0,C
S16,1,Speed,Right,SA,1.0,1.0,1.0,0.0,582.03125,513.18359375,68.84765625,513.18359375,,,,501,Right,0.0,C
S16,4,Speed,Right,MA,1.0,2.0,1.0,1.0,346.6796875,283.69140625,62.98828125,191.40625,92.28515625,100.09765625,Left,502,Right,1.0,I C
S16,5,Speed,Left,SA,1.0,1.0,1.0,0.0,333.49609375,231.4453125,102.05078125,231.4453125,,,,503,Left,0.0,C
S16,5,Speed,Right,MA,1.0,2.0,1.0,1.0,270.01953125,163.0859375,106.93359375,102.5390625,60.546875,,Left,504,Right,1.0,I C
S16,3,Speed,Right,MA,1.0,3.0,2.0,1.0,465.8203125,406.73828125,59.08203125,168.45703125,238.28125,278.3203125,Left,505,Right,1.0,I C C
S16,2,Speed,Right,MA,1.0,2.0,1.0,1.0,364.74609375,268.06640625,96.6796875,201.66015625,66.40625,147.4609375,Left,506,Right,1.0,I C
S16,3,Speed,Right,SA,1.0,1.0,1.0,0.0,346.19140625,261.71875,84.47265625,261.71875,,,,507,Right,0.0,C
S16,1,Speed,Left,SA,0.0,1.0,0.0,1.0,416.9921875,299.8046875,117.1875,299.8046875,,,,508,Right,0.0,I
S16,2,Speed,Right,SA,1.0,1.0,1.0,0.0,343.26171875,243.65234375,99.609375,243.65234375,,,,509,Right,0.0,C
S16,2,Speed,Left,MA,1.0,3.0,2.0,1.0,659.1796875,573.2421875,85.9375,278.80859375,294.43359375,365.234375,Right,510,Left,1.0,I C C
S16,4,Speed,Left,SA,1.0,1.0,1.0,0.0,386.71875,272.94921875,113.76953125,272.94921875,,,,511,Left,0.0,C
S16,3,Speed,Right,MA,1.0,2.0,1.0,1.0,202.63671875,118.1640625,84.47265625,113.28125,4.8828125,,Left,512,Right,1.0,I C
S16,3,Speed,Left,MA,1.0,2.0,2.0,0.0,179.19921875,105.46875,73.73046875,55.17578125,50.29296875,,Left,513,Left,0.0,C C
S16,2,Speed,Left,MA,0.0,3.0,1.0,2.0,343.26171875,281.25,62.01171875,122.0703125,159.1796875,,Right,514,Right,2.0,I C I
S16,5,Speed,Left,SA,0.0,1.0,0.0,1.0,190.91796875,119.140625,71.77734375,119.140625,,,,515,Right,0.0,I
S16,4,Speed,Right,MA,1.0,2.0,1.0,1.0,292.96875,224.609375,68.359375,207.51953125,17.08984375,,Left,516,Right,1.0,I C
S16,1,Speed,Right,MA,1.0,2.0,1.0,1.0,318.84765625,227.05078125,91.796875,153.80859375,73.2421875,,Left,517,Right,1.0,I C
S16,3,Speed,Left,SA,1.0,1.0,1.0,0.0,266.6015625,159.1796875,107.421875,159.1796875,,,,518,Left,0.0,C
S16,3,Speed,Left,SA,0.0,1.0,0.0,1.0,270.5078125,160.64453125,109.86328125,160.64453125,,,,519,Right,0.0,I
S16,1,Speed,Left,SA,1.0,1.0,1.0,0.0,283.69140625,147.4609375,136.23046875,147.4609375,,,,520,Left,0.0,C
S16,1,Speed,Left,SA,1.0,1.0,1.0,0.0,270.99609375,126.46484375,144.53125,126.46484375,,,,521,Left,0.0,C
S16,4,Speed,Left,SA,0.0,1.0,0.0,1.0,287.109375,210.44921875,76.66015625,210.44921875,,,,522,Right,0.0,I
S16,2,Speed,Left,SA,0.0,1.0,0.0,1.0,452.1484375,352.5390625,99.609375,352.5390625,,,,523,Right,0.0,I
S16,5,Speed,Left,SA,1.0,1.0,1.0,0.0,405.2734375,297.8515625,107.421875,297.8515625,,,,524,Left,0.0,C
S16,4,Speed,Left,MA,1.0,3.0,2.0,1.0,577.63671875,458.0078125,119.62890625,220.21484375,237.79296875,311.03515625,Left,525,Left,2.0,C I C
S16,4,Speed,Left,MA,1.0,3.0,2.0,1.0,655.76171875,570.80078125,84.9609375,177.734375,393.06640625,419.43359375,Right,526,Left,1.0,I C C
S16,1,Speed,Right,MA,1.0,2.0,1.0,1.0,389.16015625,310.05859375,79.1015625,246.58203125,63.4765625,,Left,527,Right,1.0,I C
S16,5,Speed,Right,MA,1.0,3.0,2.0,1.0,578.61328125,476.5625,102.05078125,197.265625,279.296875,354.4921875,Left,528,Right,1.0,I C C
S16,3,Speed,Left,SA,0.0,1.0,0.0,1.0,350.09765625,235.83984375,114.2578125,235.83984375,,,,529,Right,0.0,I
S16,4,Speed,Right,SA,1.0,1.0,1.0,0.0,330.56640625,192.87109375,137.6953125,192.87109375,,,,530,Right,0.0,C
S16,1,Speed,Left,SA,1.0,1.0,1.0,0.0,334.47265625,197.75390625,136.71875,197.75390625,,,,531,Left,0.0,C
S16,3,Speed,Right,SA,1.0,1.0,1.0,0.0,334.9609375,225.5859375,109.375,225.5859375,,,,532,Right,0.0,C
S16,2,Speed,Left,SA,0.0,1.0,0.0,1.0,357.91015625,270.01953125,87.890625,270.01953125,,,,533,Right,0.0,I
S16,5,Speed,Right,SA,1.0,1.0,1.0,0.0,337.890625,231.93359375,105.95703125,231.93359375,,,,534,Right,0.0,C
S16,3,Speed,Left,SA,1.0,1.0,1.0,0.0,493.65234375,357.421875,136.23046875,357.421875,,,,535,Left,0.0,C
S16,4,Speed,Left,MA,1.0,2.0,1.0,1.0,462.40234375,333.984375,128.41796875,224.12109375,109.86328125,204.58984375,Right,536,Left,1.0,I C
S16,1,Speed,Right,SA,1.0,1.0,1.0,0.0,336.9140625,231.4453125,105.46875,231.4453125,,,,537,Right,0.0,C
S16,4,Speed,Right,MA,1.0,2.0,1.0,1.0,304.19921875,211.42578125,92.7734375,187.5,23.92578125,,Left,538,Right,1.0,I C
S16,3,Speed,Left,MA,1.0,2.0,2.0,0.0,595.21484375,541.9921875,53.22265625,282.71484375,259.27734375,,Left,539,Left,0.0,C C
S16,3,Speed,Right,SA,1.0,1.0,1.0,0.0,396.484375,296.38671875,100.09765625,296.38671875,,,,540,Right,0.0,C
S16,4,Speed,Right,MA,1.0,3.0,2.0,1.0,626.953125,545.8984375,81.0546875,224.12109375,321.77734375,,Left,541,Right,1.0,I C C
S16,4,Speed,Right,SA,1.0,1.0,1.0,0.0,332.51953125,208.49609375,124.0234375,208.49609375,,,,542,Right,0.0,C
S16,2,Speed,Right,SA,1.0,1.0,1.0,0.0,338.8671875,255.37109375,83.49609375,255.37109375,,,,543,Right,0.0,C
S16,5,Speed,Left,SA,0.0,1.0,0.0,1.0,275.87890625,180.6640625,95.21484375,180.6640625,,,,544,Right,0.0,I
S16,2,Speed,Right,SA,1.0,1.0,1.0,0.0,347.65625,250.0,97.65625,250.0,,,,545,Right,0.0,C
S16,1,Speed,Left,SA,0.0,1.0,0.0,1.0,400.390625,285.64453125,114.74609375,285.64453125,,,,546,Right,0.0,I
S16,1,Speed,Right,SA,1.0,1.0,1.0,0.0,374.51171875,282.71484375,91.796875,282.71484375,,,,547,Right,0.0,C
S16,5,Speed,Left,SA,1.0,1.0,1.0,0.0,302.734375,188.96484375,113.76953125,188.96484375,,,,548,Left,0.0,C
S16,5,Speed,Right,SA,1.0,1.0,1.0,0.0,315.4296875,223.14453125,92.28515625,223.14453125,,,,549,Right,0.0,C
S16,1,Speed,Right,MA,1.0,4.0,2.0,2.0,605.95703125,510.25390625,95.703125,182.6171875,327.63671875,,Left,550,Right,3.0,I C I C
S16,5,Speed,Right,SA,1.0,1.0,1.0,0.0,361.328125,250.9765625,110.3515625,250.9765625,,,,551,Right,0.0,C
S16,5,Speed,Left,MA,1.0,3.0,2.0,1.0,378.90625,296.38671875,82.51953125,214.84375,81.54296875,125.0,Right,552,Left,1.0,I C C
S16,1,Speed,Left,MA,0.0,3.0,0.0,3.0,555.6640625,500.0,55.6640625,206.0546875,293.9453125,,Right,553,Right,0.0,I I I
S16,3,Speed,Left,SA,1.0,1.0,1.0,0.0,236.328125,107.91015625,128.41796875,107.91015625,,,,554,Left,0.0,C
S16,5,Speed,Left,SA,1.0,1.0,1.0,0.0,349.609375,233.3984375,116.2109375,233.3984375,,,,555,Left,0.0,C
S16,5,Speed,Left,SA,1.0,1.0,1.0,0.0,337.890625,233.3984375,104.4921875,233.3984375,,,,556,Left,0.0,C
S16,3,Speed,Right,MA,1.0,3.0,2.0,1.0,399.90234375,317.3828125,82.51953125,165.52734375,151.85546875,,Right,557,Right,2.0,C I C
S16,4,Speed,Left,SA,1.0,1.0,1.0,0.0,328.61328125,216.30859375,112.3046875,216.30859375,,,,558,Left,0.0,C
S16,2,Speed,Left,MA,0.0,3.0,1.0,2.0,439.94140625,369.62890625,70.3125,164.0625,205.56640625,168.9453125,Right,559,Right,2.0,I C I
S16,2,Speed,Right,MA,0.0,2.0,1.0,1.0,455.078125,351.5625,103.515625,259.765625,91.796875,,Right,560,Left,1.0,C I
S16,3,Speed,Left,SA,1.0,1.0,1.0,0.0,312.5,150.87890625,161.62109375,150.87890625,,,,561,Left,0.0,C
S16,4,Speed,Left,MA,1.0,2.0,1.0,1.0,442.87109375,328.125,114.74609375,184.5703125,143.5546875,217.7734375,Right,562,Left,1.0,I C
S16,3,Speed,Left,MA,0.0,3.0,1.0,2.0,556.640625,491.69921875,64.94140625,292.48046875,199.21875,,Left,563,Right,1.0,C I I
S16,3,Speed,Left,SA,1.0,1.0,1.0,0.0,351.5625,256.8359375,94.7265625,256.8359375,,,,564,Left,0.0,C
S16,2,Speed,Right,MA,1.0,4.0,2.0,2.0,464.84375,351.5625,113.28125,149.4140625,202.1484375,234.86328125,Left,565,Right,3.0,I C I C
S16,1,Speed,Right,MA,1.0,2.0,1.0,1.0,453.125,343.75,109.375,334.9609375,8.7890625,,Left,566,Right,1.0,I C
S16,4,Speed,Left,MA,1.0,2.0,1.0,1.0,398.92578125,236.328125,162.59765625,235.83984375,0.48828125,,Right,567,Left,1.0,I C
S16,4,Speed,Left,SA,0.0,1.0,0.0,1.0,326.171875,179.19921875,146.97265625,179.19921875,,,,568,Right,0.0,I
S16,1,Speed,Left,MA,0.0,2.0,1.0,1.0,409.66796875,309.5703125,100.09765625,227.05078125,82.51953125,,Left,569,Right,1.0,C I
S16,2,Speed,Right,MA,1.0,4.0,2.0,2.0,689.453125,609.375,80.078125,132.8125,476.5625,406.73828125,Left,570,Right,1.0,I I C C
S16,1,Speed,Left,SA,1.0,1.0,1.0,0.0,359.86328125,252.44140625,107.421875,252.44140625,,,,571,Left,0.0,C
S16,3,Speed,Right,SA,1.0,1.0,1.0,0.0,391.11328125,277.83203125,113.28125,277.83203125,,,,572,Right,0.0,C
S16,4,Speed,Right,SA,1.0,1.0,1.0,0.0,409.1796875,328.125,81.0546875,328.125,,,,573,Right,0.0,C
S16,5,Speed,Left,MA,1.0,2.0,2.0,0.0,613.76953125,497.55859375,116.2109375,326.171875,171.38671875,,Left,574,Left,0.0,C C
S16,4,Speed,Left,MA,1.0,2.0,1.0,1.0,361.81640625,212.890625,148.92578125,212.890625,0.0,,Left,575,Left,1.0,C I
S16,2,Speed,Right,SA,1.0,1.0,1.0,0.0,313.4765625,227.5390625,85.9375,227.5390625,,,,576,Right,0.0,C
S16,5,Speed,Right,MA,1.0,3.0,2.0,1.0,542.96875,471.19140625,71.77734375,157.71484375,313.4765625,,Left,577,Right,1.0,I C C
S16,4,Speed,Right,SA,0.0,1.0,0.0,1.0,250.0,149.90234375,100.09765625,149.90234375,,,,578,Left,0.0,I
S16,5,Speed,Right,SA,1.0,1.0,1.0,0.0,230.46875,147.4609375,83.0078125,147.4609375,,,,579,Right,0.0,C
S16,1,Speed,Left,SA,1.0,1.0,1.0,0.0,203.61328125,111.81640625,91.796875,111.81640625,,,,580,Left,0.0,C
S16,2,Speed,Right,SA,1.0,1.0,1.0,0.0,232.421875,141.6015625,90.8203125,141.6015625,,,,581,Right,0.0,C
S16,5,Speed,Right,SA,0.0,1.0,0.0,1.0,202.63671875,103.515625,99.12109375,103.515625,,,,582,Left,0.0,I
S16,2,Speed,Left,MA,1.0,2.0,2.0,0.0,229.4921875,137.6953125,91.796875,80.078125,57.6171875,,Left,583,Left,0.0,C C
S16,2,Speed,Left,MA,0.0,3.0,1.0,2.0,333.984375,256.8359375,77.1484375,138.671875,118.1640625,175.78125,Right,584,Right,2.0,I C I
S16,4,Speed,Right,SA,0.0,1.0,0.0,1.0,238.76953125,110.83984375,127.9296875,110.83984375,,,,585,Left,0.0,I
S16,2,Speed,Left,MA,0.0,2.0,1.0,1.0,335.44921875,235.83984375,99.609375,135.25390625,100.5859375,174.8046875,Left,586,Right,1.0,C I
S16,2,Speed,Left,SA,1.0,1.0,1.0,0.0,302.24609375,169.921875,132.32421875,169.921875,,,,587,Left,0.0,C
S16,5,Speed,Right,MA,1.0,2.0,1.0,1.0,189.94140625,93.26171875,96.6796875,83.984375,9.27734375,,Left,588,Right,1.0,I C
S16,1,Speed,Right,SA,0.0,1.0,0.0,1.0,226.07421875,72.75390625,153.3203125,72.75390625,,,,589,Left,0.0,I
S16,2,Speed,Left,SA,0.0,1.0,0.0,1.0,241.69921875,140.625,101.07421875,140.625,,,,590,Right,0.0,I
S16,5,Speed,Right,SA,0.0,1.0,0.0,1.0,228.02734375,67.3828125,160.64453125,67.3828125,,,,591,Left,0.0,I
S16,4,Speed,Right,MA,1.0,5.0,2.0,3.0,587.40234375,501.46484375,85.9375,103.02734375,398.4375,422.36328125,Left,592,Right,3.0,I I C I C
S16,3,Speed,Right,MA,1.0,2.0,1.0,1.0,358.88671875,287.109375,71.77734375,142.08984375,145.01953125,179.6875,Left,593,Right,1.0,I C
S16,5,Speed,Left,MA,1.0,2.0,1.0,1.0,236.328125,167.48046875,68.84765625,167.48046875,0.0,,Left,594,Left,1.0,C I
S16,1,Speed,Right,MA,1.0,2.0,2.0,0.0,250.48828125,143.06640625,107.421875,40.0390625,103.02734375,,Right,595,Right,0.0,C C
S16,1,Speed,Right,SA,1.0,1.0,1.0,0.0,247.0703125,138.671875,108.3984375,138.671875,,,,596,Right,0.0,C
S16,2,Speed,Right,SA,0.0,1.0,0.0,1.0,231.4453125,120.1171875,111.328125,120.1171875,,,,597,Left,0.0,I
S16,1,Speed,Left,SA,0.0,1.0,0.0,1.0,251.46484375,132.32421875,119.140625,132.32421875,,,,598,Right,0.0,I
S16,3,Speed,Right,SA,1.0,1.0,1.0,0.0,220.21484375,138.671875,81.54296875,138.671875,,,,599,Right,0.0,C
S16,3,Speed,Right,SA,0.0,1.0,0.0,1.0,200.68359375,92.7734375,107.91015625,92.7734375,,,,600,Left,0.0,I
S16,3,Accuracy,Right,SA,1.0,1.0,1.0,0.0,466.30859375,385.7421875,80.56640625,385.7421875,,,,601,Right,0.0,C
S16,5,Accuracy,Left,MA,1.0,2.0,1.0,1.0,373.046875,287.59765625,85.44921875,202.1484375,85.44921875,,Right,602,Left,1.0,I C
S16,2,Accuracy,Right,SA,1.0,1.0,1.0,0.0,400.390625,310.05859375,90.33203125,310.05859375,,,,603,Right,0.0,C
S16,5,Accuracy,Right,SA,1.0,1.0,1.0,0.0,336.9140625,250.48828125,86.42578125,250.48828125,,,,604,Right,0.0,C
S16,5,Accuracy,Left,SA,1.0,1.0,1.0,0.0,326.66015625,184.08203125,142.578125,184.08203125,,,,605,Left,0.0,C
S16,3,Accuracy,Right,SA,1.0,1.0,1.0,0.0,275.390625,162.59765625,112.79296875,162.59765625,,,,606,Right,0.0,C
S16,4,Accuracy,Right,SA,1.0,1.0,1.0,0.0,386.23046875,280.2734375,105.95703125,280.2734375,,,,607,Right,0.0,C
S16,1,Accuracy,Right,SA,0.0,1.0,0.0,1.0,262.20703125,141.11328125,121.09375,141.11328125,,,,608,Left,0.0,I
S16,4,Accuracy,Left,SA,1.0,1.0,1.0,0.0,427.24609375,314.453125,112.79296875,314.453125,,,,609,Left,0.0,C
S16,4,Accuracy,Right,SA,1.0,1.0,1.0,0.0,271.484375,184.5703125,86.9140625,184.5703125,,,,610,Right,0.0,C
S16,2,Accuracy,Left,SA,1.0,1.0,1.0,0.0,284.1796875,123.53515625,160.64453125,123.53515625,,,,611,Left,0.0,C
S16,3,Accuracy,Left,MA,0.0,2.0,1.0,1.0,373.046875,224.609375,148.4375,201.66015625,22.94921875,,Left,612,Right,1.0,C I
S16,5,Accuracy,Left,SA,1.0,1.0,1.0,0.0,316.40625,225.5859375,90.8203125,225.5859375,,,,613,Left,0.0,C
S16,1,Accuracy,Right,MA,1.0,2.0,1.0,1.0,392.578125,322.75390625,69.82421875,207.51953125,115.234375,141.6015625,Left,614,Right,1.0,I C
S16,3,Accuracy,Right,MA,1.0,2.0,1.0,1.0,400.390625,291.50390625,108.88671875,198.2421875,93.26171875,148.92578125,Left,615,Right,1.0,I C
S16,1,Accuracy,Right,SA,1.0,1.0,1.0,0.0,402.83203125,270.99609375,131.8359375,270.99609375,,,,616,Right,0.0,C
S16,2,Accuracy,Left,SA,1.0,1.0,1.0,0.0,390.13671875,142.578125,247.55859375,142.578125,,,,617,Left,0.0,C
S16,5,Accuracy,Right,MA,1.0,2.0,2.0,0.0,520.99609375,384.765625,136.23046875,255.37109375,129.39453125,,Right,618,Right,0.0,C C
S16,4,Accuracy,Left,SA,1.0,1.0,1.0,0.0,469.7265625,220.703125,249.0234375,220.703125,,,,619,Left,0.0,C
S16,5,Accuracy,Right,SA,1.0,1.0,1.0,0.0,320.80078125,213.8671875,106.93359375,213.8671875,,,,620,Right,0.0,C
S16,5,Accuracy,Left,MA,1.0,2.0,2.0,0.0,287.59765625,201.66015625,85.9375,129.8828125,71.77734375,,Left,621,Left,0.0,C C
S16,1,Accuracy,Left,SA,0.0,1.0,0.0,1.0,304.6875,196.2890625,108.3984375,196.2890625,,,,622,Right,0.0,I
S16,4,Accuracy,Right,MA,1.0,3.0,2.0,1.0,342.28515625,269.53125,72.75390625,130.37109375,139.16015625,,Right,623,Right,2.0,C I C
S16,2,Accuracy,Right,MA,0.0,2.0,1.0,1.0,341.796875,223.6328125,118.1640625,223.6328125,0.0,,Left,624,Left,1.0,I C
S16,2,Accuracy,Right,MA,1.0,2.0,2.0,0.0,534.1796875,437.5,96.6796875,229.00390625,208.49609375,,Right,625,Right,0.0,C C
S16,1,Accuracy,Left,MA,0.0,2.0,1.0,1.0,552.24609375,467.7734375,84.47265625,194.3359375,273.4375,354.98046875,Left,626,Right,1.0,C I
S16,2,Accuracy,Right,SA,0.0,1.0,0.0,1.0,321.77734375,213.8671875,107.91015625,213.8671875,,,,627,Left,0.0,I
S16,4,Accuracy,Left,SA,0.0,1.0,0.0,1.0,373.046875,269.53125,103.515625,269.53125,,,,628,Right,0.0,I
S16,1,Accuracy,Right,MA,1.0,2.0,2.0,0.0,559.08203125,486.81640625,72.265625,263.671875,223.14453125,,Right,629,Right,0.0,C C
S16,4,Accuracy,Left,SA,1.0,1.0,1.0,0.0,430.6640625,322.265625,108.3984375,322.265625,,,,630,Left,0.0,C
S16,4,Accuracy,Right,SA,1.0,1.0,1.0,0.0,307.12890625,212.40234375,94.7265625,212.40234375,,,,631,Right,0.0,C
S16,4,Accuracy,Right,SA,1.0,1.0,1.0,0.0,340.33203125,232.421875,107.91015625,232.421875,,,,632,Right,0.0,C
S16,5,Accuracy,Right,SA,1.0,1.0,1.0,0.0,337.890625,258.7890625,79.1015625,258.7890625,,,,633,Right,0.0,C
S16,3,Accuracy,Right,SA,1.0,1.0,1.0,0.0,340.8203125,237.79296875,103.02734375,237.79296875,,,,634,Right,0.0,C
S16,3,Accuracy,Left,SA,0.0,1.0,0.0,1.0,400.87890625,281.25,119.62890625,281.25,,,,635,Right,0.0,I
S16,1,Accuracy,Left,MA,0.0,3.0,1.0,2.0,618.1640625,500.0,118.1640625,125.9765625,374.0234375,460.44921875,Left,636,Right,1.0,C I I
S16,4,Accuracy,Right,SA,1.0,1.0,1.0,0.0,311.03515625,221.6796875,89.35546875,221.6796875,,,,637,Right,0.0,C
S16,5,Accuracy,Left,MA,1.0,2.0,1.0,1.0,472.16796875,363.76953125,108.3984375,237.79296875,125.9765625,205.56640625,Right,638,Left,1.0,I C
S16,2,Accuracy,Right,SA,1.0,1.0,1.0,0.0,294.921875,171.875,123.046875,171.875,,,,639,Right,0.0,C
S16,1,Accuracy,Left,SA,0.0,1.0,0.0,1.0,342.28515625,230.95703125,111.328125,230.95703125,,,,640,Right,0.0,I
S16,4,Accuracy,Left,MA,1.0,2.0,2.0,0.0,500.0,405.76171875,94.23828125,232.421875,173.33984375,,Left,641,Left,0.0,C C
S16,5,Accuracy,Right,MA,1.0,2.0,2.0,0.0,559.5703125,476.07421875,83.49609375,259.765625,216.30859375,,Right,642,Right,0.0,C C
S16,1,Accuracy,Right,MA,1.0,2.0,1.0,1.0,444.82421875,310.05859375,134.765625,180.6640625,129.39453125,233.3984375,Left,643,Right,1.0,I C
S16,3,Accuracy,Right,MA,1.0,4.0,3.0,1.0,785.15625,722.16796875,62.98828125,198.73046875,523.4375,555.6640625,Left,644,Right,1.0,I C C C
S16,4,Accuracy,Left,SA,1.0,1.0,1.0,0.0,477.5390625,383.30078125,94.23828125,383.30078125,,,,645,Left,0.0,C
S16,5,Accuracy,Right,SA,1.0,1.0,1.0,0.0,309.08203125,222.65625,86.42578125,222.65625,,,,646,Right,0.0,C
S16,1,Accuracy,Left,SA,1.0,1.0,1.0,0.0,337.890625,208.0078125,129.8828125,208.0078125,,,,647,Left,0.0,C
S16,4,Accuracy,Left,MA,1.0,2.0,2.0,0.0,623.046875,501.46484375,121.58203125,258.7890625,242.67578125,,Left,648,Left,0.0,C C
S16,1,Accuracy,Right,MA,1.0,2.0,1.0,1.0,312.98828125,219.23828125,93.75,173.33984375,45.8984375,,Left,649,Right,1.0,I C
S16,3,Accuracy,Left,MA,1.0,3.0,2.0,1.0,520.01953125,415.0390625,104.98046875,235.3515625,179.6875,258.7890625,Right,650,Left,1.0,I C C
S16,3,Accuracy,Right,SA,1.0,1.0,1.0,0.0,323.2421875,222.16796875,101.07421875,222.16796875,,,,651,Right,0.0,C
S16,2,Accuracy,Left,MA,0.0,3.0,0.0,3.0,797.36328125,681.640625,115.72265625,299.31640625,382.32421875,,Right,652,Right,0.0,I I I
S16,3,Accuracy,Right,MA,0.0,2.0,1.0,1.0,437.5,290.0390625,147.4609375,290.0390625,0.0,,Left,653,Left,1.0,I C
S16,1,Accuracy,Left,SA,0.0,1.0,0.0,1.0,349.609375,270.01953125,79.58984375,270.01953125,,,,654,Right,0.0,I
S16,2,Accuracy,Right,MA,1.0,2.0,1.0,1.0,392.08984375,295.41015625,96.6796875,222.65625,72.75390625,,Left,655,Right,1.0,I C
S16,4,Accuracy,Right,MA,1.0,2.0,2.0,0.0,583.0078125,503.41796875,79.58984375,284.66796875,218.75,,Right,656,Right,0.0,C C
S16,4,Accuracy,Right,SA,1.0,1.0,1.0,0.0,329.58984375,257.32421875,72.265625,257.32421875,,,,657,Right,0.0,C
S16,3,Accuracy,Left,MA,0.0,2.0,1.0,1.0,437.5,344.23828125,93.26171875,280.2734375,63.96484375,,Left,658,Right,1.0,C I
S16,2,Accuracy,Right,SA,1.0,1.0,1.0,0.0,353.515625,259.765625,93.75,259.765625,,,,659,Right,0.0,C
S16,5,Accuracy,Left,MA,1.0,2.0,2.0,0.0,636.71875,514.16015625,122.55859375,250.48828125,263.671875,,Left,660,Left,0.0,C C
S16,1,Accuracy,Left,SA,0.0,1.0,0.0,1.0,288.0859375,99.12109375,188.96484375,99.12109375,,,,661,Right,0.0,I
S16,2,Accuracy,Right,SA,0.0,1.0,0.0,1.0,329.1015625,193.359375,135.7421875,193.359375,,,,662,Left,0.0,I
S16,1,Accuracy,Right,SA,1.0,1.0,1.0,0.0,230.46875,139.6484375,90.8203125,139.6484375,,,,663,Right,0.0,C
S16,2,Accuracy,Right,SA,1.0,1.0,1.0,0.0,344.7265625,264.6484375,80.078125,264.6484375,,,,664,Right,0.0,C
S16,5,Accuracy,Left,SA,0.0,1.0,0.0,1.0,233.88671875,145.99609375,87.890625,145.99609375,,,,665,Right,0.0,I
S16,5,Accuracy,Left,MA,1.0,2.0,1.0,1.0,456.0546875,355.95703125,100.09765625,217.28515625,138.671875,205.078125,Right,666,Left,1.0,I C
S16,3,Accuracy,Left,MA,0.0,3.0,1.0,2.0,467.28515625,383.30078125,83.984375,217.28515625,166.015625,130.859375,Right,667,Right,2.0,I C I
S16,2,Accuracy,Left,SA,1.0,1.0,1.0,0.0,478.02734375,377.9296875,100.09765625,377.9296875,,,,668,Left,0.0,C
S16,3,Accuracy,Left,MA,1.0,2.0,1.0,1.0,714.35546875,571.77734375,142.578125,449.70703125,122.0703125,204.1015625,Right,669,Left,1.0,I C
S16,3,Accuracy,Right,SA,1.0,1.0,1.0,0.0,364.2578125,266.11328125,98.14453125,266.11328125,,,,670,Right,0.0,C
S16,4,Accuracy,Left,UT,,0.0,,,335.9375,,,,,,,671,,,
S16,2,Accuracy,Left,SA,0.0,1.0,0.0,1.0,343.26171875,220.21484375,123.046875,220.21484375,,,,672,Right,0.0,I
S16,1,Accuracy,Right,SA,0.0,1.0,0.0,1.0,287.59765625,197.265625,90.33203125,197.265625,,,,673,Left,0.0,I
S16,5,Accuracy,Left,MA,1.0,2.0,1.0,1.0,509.765625,416.9921875,92.7734375,171.38671875,245.60546875,308.59375,Right,674,Left,1.0,I C
S16,2,Accuracy,Left,MA,0.0,2.0,1.0,1.0,341.30859375,252.9296875,88.37890625,238.28125,14.6484375,,Left,675,Right,1.0,C I
S16,3,Accuracy,Right,SA,0.0,1.0,0.0,1.0,297.8515625,150.87890625,146.97265625,150.87890625,,,,676,Left,0.0,I
S16,2,Accuracy,Left,SA,0.0,1.0,0.0,1.0,263.18359375,156.73828125,106.4453125,156.73828125,,,,677,Right,0.0,I
S16,4,Accuracy,Right,SA,0.0,1.0,0.0,1.0,310.546875,176.7578125,133.7890625,176.7578125,,,,678,Left,0.0,I
S16,1,Accuracy,Left,SA,1.0,1.0,1.0,0.0,367.67578125,232.421875,135.25390625,232.421875,,,,679,Left,0.0,C
S16,2,Accuracy,Right,SA,1.0,1.0,1.0,0.0,330.078125,238.28125,91.796875,238.28125,,,,680,Right,0.0,C
S16,5,Accuracy,Right,MA,1.0,3.0,2.0,1.0,505.37109375,443.359375,62.01171875,191.40625,251.953125,303.22265625,Left,681,Right,1.0,I C C
S16,3,Accuracy,Left,SA,1.0,1.0,1.0,0.0,408.203125,289.0625,119.140625,289.0625,,,,682,Left,0.0,C
S16,5,Accuracy,Left,SA,1.0,1.0,1.0,0.0,439.453125,310.546875,128.90625,310.546875,,,,683,Left,0.0,C
S16,2,Accuracy,Left,SA,0.0,1.0,0.0,1.0,416.9921875,298.828125,118.1640625,298.828125,,,,684,Right,0.0,I
S16,3,Accuracy,Left,SA,1.0,1.0,1.0,0.0,426.26953125,315.4296875,110.83984375,315.4296875,,,,685,Left,0.0,C
S16,4,Accuracy,Left,MA,0.0,2.0,0.0,2.0,550.29296875,467.28515625,83.0078125,236.328125,230.95703125,,Right,686,Right,0.0,I I
S16,1,Accuracy,Left,SA,1.0,1.0,1.0,0.0,332.51953125,217.7734375,114.74609375,217.7734375,,,,687,Left,0.0,C
S16,1,Accuracy,Right,MA,1.0,2.0,1.0,1.0,380.37109375,297.36328125,83.0078125,288.0859375,9.27734375,,Left,688,Right,1.0,I C
S16,5,Accuracy,Right,SA,1.0,1.0,1.0,0.0,400.390625,275.390625,125.0,275.390625,,,,689,Right,0.0,C
S16,4,Accuracy,Left,SA,0.0,1.0,0.0,1.0,426.7578125,296.38671875,130.37109375,296.38671875,,,,690,Right,0.0,I
S16,2,Accuracy,Left,SA,1.0,1.0,1.0,0.0,464.84375,347.65625,117.1875,347.65625,,,,691,Left,0.0,C
S16,2,Accuracy,Left,SA,1.0,1.0,1.0,0.0,344.23828125,239.74609375,104.4921875,239.74609375,,,,692,Left,0.0,C
S16,1,Accuracy,Right,SA,0.0,1.0,0.0,1.0,396.484375,227.05078125,169.43359375,227.05078125,,,,693,Left,0.0,I
S16,1,Accuracy,Left,MA,0.0,3.0,0.0,3.0,568.84765625,531.25,37.59765625,242.1875,289.0625,,Right,694,Right,0.0,I I I
S16,5,Accuracy,Right,SA,0.0,1.0,0.0,1.0,266.6015625,130.859375,135.7421875,130.859375,,,,695,Left,0.0,I
S16,3,Accuracy,Right,SA,0.0,1.0,0.0,1.0,395.01953125,216.796875,178.22265625,216.796875,,,,696,Left,0.0,I
S16,3,Accuracy,Left,SA,0.0,1.0,0.0,1.0,436.03515625,309.5703125,126.46484375,309.5703125,,,,697,Right,0.0,I
S16,5,Accuracy,Right,SA,1.0,1.0,1.0,0.0,341.796875,236.328125,105.46875,236.328125,,,,698,Right,0.0,C
S16,4,Accuracy,Right,SA,1.0,1.0,1.0,0.0,334.9609375,240.234375,94.7265625,240.234375,,,,699,Right,0.0,C
S16,3,Accuracy,Left,MA,1.0,3.0,2.0,1.0,751.953125,654.78515625,97.16796875,251.46484375,403.3203125,478.02734375,Left,700,Left,2.0,C I C
S16,5,Accuracy,Left,SA,1.0,1.0,1.0,0.0,432.6171875,337.890625,94.7265625,337.890625,,,,701,Left,0.0,C
S16,2,Accuracy,Right,MA,1.0,2.0,1.0,1.0,339.35546875,266.11328125,73.2421875,240.72265625,25.390625,,Left,702,Right,1.0,I C
S16,3,Accuracy,Left,SA,1.0,1.0,1.0,0.0,383.7890625,277.34375,106.4453125,277.34375,,,,703,Left,0.0,C
S16,4,Accuracy,Right,MA,1.0,2.0,1.0,1.0,438.96484375,339.35546875,99.609375,268.5546875,70.80078125,,Left,704,Right,1.0,I C
S16,5,Accuracy,Right,SA,1.0,1.0,1.0,0.0,335.9375,223.6328125,112.3046875,223.6328125,,,,705,Right,0.0,C
S16,1,Accuracy,Right,MA,0.0,2.0,1.0,1.0,567.87109375,454.58984375,113.28125,228.02734375,226.5625,387.20703125,Right,706,Left,1.0,C I
S16,3,Accuracy,Left,MA,0.0,2.0,1.0,1.0,474.609375,375.0,99.609375,246.58203125,128.41796875,177.24609375,Left,707,Right,1.0,C I
S16,4,Accuracy,Right,SA,1.0,1.0,1.0,0.0,405.2734375,323.2421875,82.03125,323.2421875,,,,708,Right,0.0,C
S16,2,Accuracy,Left,SA,1.0,1.0,1.0,0.0,461.9140625,294.43359375,167.48046875,294.43359375,,,,709,Left,0.0,C
S16,2,Accuracy,Left,SA,0.0,1.0,0.0,1.0,404.78515625,322.265625,82.51953125,322.265625,,,,710,Right,0.0,I
S16,4,Accuracy,Left,SA,1.0,1.0,1.0,0.0,421.875,290.52734375,131.34765625,290.52734375,,,,711,Left,0.0,C
S16,2,Accuracy,Left,SA,0.0,1.0,0.0,1.0,336.42578125,232.91015625,103.515625,232.91015625,,,,712,Right,0.0,I
S16,5,Accuracy,Right,MA,1.0,3.0,1.0,2.0,365.72265625,290.52734375,75.1953125,120.60546875,169.921875,,Left,713,Right,1.0,I I C
S16,4,Accuracy,Left,MA,1.0,2.0,2.0,0.0,607.421875,511.71875,95.703125,275.87890625,235.83984375,,Left,714,Left,0.0,C C
S16,4,Accuracy,Left,SA,1.0,1.0,1.0,0.0,459.47265625,351.07421875,108.3984375,351.07421875,,,,715,Left,0.0,C
S16,2,Accuracy,Left,SA,0.0,1.0,0.0,1.0,404.78515625,308.59375,96.19140625,308.59375,,,,716,Right,0.0,I
S16,2,Accuracy,Right,MA,1.0,3.0,2.0,1.0,416.015625,294.43359375,121.58203125,237.3046875,57.12890625,148.4375,Right,717,Right,1.0,C C I
S16,1,Accuracy,Left,SA,1.0,1.0,1.0,0.0,370.1171875,250.0,120.1171875,250.0,,,,718,Left,0.0,C
S16,3,Accuracy,Right,MA,1.0,2.0,1.0,1.0,437.98828125,317.87109375,120.1171875,175.78125,142.08984375,,Left,719,Right,1.0,I C
S16,4,Accuracy,Left,SA,1.0,1.0,1.0,0.0,403.3203125,280.76171875,122.55859375,280.76171875,,,,720,Left,0.0,C
S16,1,Accuracy,Left,SA,0.0,1.0,0.0,1.0,353.515625,239.74609375,113.76953125,239.74609375,,,,721,Right,0.0,I
S16,4,Accuracy,Right,MA,1.0,3.0,2.0,1.0,562.98828125,476.07421875,86.9140625,225.09765625,250.9765625,,Left,722,Right,1.0,I C C
S16,5,Accuracy,Right,SA,1.0,1.0,1.0,0.0,382.32421875,263.671875,118.65234375,263.671875,,,,723,Right,0.0,C
S16,1,Accuracy,Right,SA,0.0,1.0,0.0,1.0,392.578125,264.6484375,127.9296875,264.6484375,,,,724,Left,0.0,I
S16,2,Accuracy,Left,SA,0.0,1.0,0.0,1.0,458.49609375,339.35546875,119.140625,339.35546875,,,,725,Right,0.0,I
S16,3,Accuracy,Right,SA,1.0,1.0,1.0,0.0,351.07421875,238.76953125,112.3046875,238.76953125,,,,726,Right,0.0,C
S16,2,Accuracy,Right,SA,1.0,1.0,1.0,0.0,383.7890625,281.25,102.5390625,281.25,,,,727,Right,0.0,C
S16,1,Accuracy,Left,SA,0.0,1.0,0.0,1.0,400.87890625,291.9921875,108.88671875,291.9921875,,,,728,Right,0.0,I
S16,4,Accuracy,Right,SA,1.0,1.0,1.0,0.0,362.79296875,262.20703125,100.5859375,262.20703125,,,,729,Right,0.0,C
S16,3,Accuracy,Right,MA,1.0,2.0,1.0,1.0,481.93359375,323.2421875,158.69140625,242.67578125,80.56640625,,Left,730,Right,1.0,I C
S16,4,Accuracy,Left,MA,1.0,3.0,3.0,0.0,749.51171875,668.45703125,81.0546875,321.77734375,346.6796875,,Left,731,Left,0.0,C C C
S16,1,Accuracy,Left,SA,0.0,1.0,0.0,1.0,354.4921875,236.328125,118.1640625,236.328125,,,,732,Right,0.0,I
S16,2,Accuracy,Right,SA,0.0,1.0,0.0,1.0,304.6875,183.59375,121.09375,183.59375,,,,733,Left,0.0,I
S16,2,Accuracy,Left,SA,1.0,1.0,1.0,0.0,352.05078125,151.3671875,200.68359375,151.3671875,,,,734,Left,0.0,C
S16,4,Accuracy,Right,SA,1.0,1.0,1.0,0.0,360.83984375,263.671875,97.16796875,263.671875,,,,735,Right,0.0,C
S16,1,Accuracy,Right,SA,0.0,1.0,0.0,1.0,331.54296875,189.94140625,141.6015625,189.94140625,,,,736,Left,0.0,I
S16,5,Accuracy,Left,MA,1.0,2.0,1.0,1.0,524.4140625,414.0625,110.3515625,187.98828125,226.07421875,322.265625,Right,737,Left,1.0,I C
S16,3,Accuracy,Left,MA,1.0,3.0,1.0,2.0,675.78125,538.57421875,137.20703125,233.88671875,304.6875,427.24609375,Right,738,Left,1.0,I I C
S16,2,Accuracy,Left,SA,0.0,1.0,0.0,1.0,340.33203125,229.4921875,110.83984375,229.4921875,,,,739,Right,0.0,I
S16,5,Accuracy,Left,SA,1.0,1.0,1.0,0.0,343.75,210.9375,132.8125,210.9375,,,,740,Left,0.0,C
S16,4,Accuracy,Right,SA,1.0,1.0,1.0,0.0,398.4375,291.9921875,106.4453125,291.9921875,,,,741,Right,0.0,C
S16,3,Accuracy,Right,MA,1.0,3.0,2.0,1.0,965.33203125,878.90625,86.42578125,226.5625,652.34375,716.30859375,Left,742,Right,1.0,I C C
S16,5,Accuracy,Left,SA,1.0,1.0,1.0,0.0,283.203125,149.90234375,133.30078125,149.90234375,,,,743,Left,0.0,C
S16,2,Accuracy,Right,MA,1.0,3.0,2.0,1.0,832.03125,758.7890625,73.2421875,270.5078125,488.28125,525.390625,Left,744,Right,1.0,I C C
S16,3,Accuracy,Right,MA,1.0,3.0,2.0,1.0,841.796875,761.71875,80.078125,211.42578125,550.29296875,604.00390625,Left,745,Right,1.0,I C C
S16,1,Accuracy,Right,MA,0.0,3.0,1.0,2.0,631.34765625,467.28515625,164.0625,82.03125,385.25390625,,Left,746,Left,2.0,I C I
S16,3,Accuracy,Right,SA,1.0,1.0,1.0,0.0,372.0703125,262.6953125,109.375,262.6953125,,,,747,Right,0.0,C
S16,1,Accuracy,Left,SA,1.0,1.0,1.0,0.0,370.60546875,244.62890625,125.9765625,244.62890625,,,,748,Left,0.0,C
S16,5,Accuracy,Left,SA,1.0,1.0,1.0,0.0,439.453125,312.5,126.953125,312.5,,,,749,Left,0.0,C
S16,4,Accuracy,Left,SA,1.0,1.0,1.0,0.0,388.671875,261.71875,126.953125,261.71875,,,,750,Left,0.0,C
S16,1,Accuracy,Right,SA,1.0,1.0,1.0,0.0,372.0703125,244.62890625,127.44140625,244.62890625,,,,751,Right,0.0,C
S16,5,Accuracy,Right,SA,1.0,1.0,1.0,0.0,354.4921875,259.27734375,95.21484375,259.27734375,,,,752,Right,0.0,C
S16,4,Accuracy,Left,SA,1.0,1.0,1.0,0.0,395.01953125,255.37109375,139.6484375,255.37109375,,,,753,Left,0.0,C
S16,3,Accuracy,Right,SA,1.0,1.0,1.0,0.0,327.63671875,221.6796875,105.95703125,221.6796875,,,,754,Right,0.0,C
S16,5,Accuracy,Right,SA,1.0,1.0,1.0,0.0,388.671875,289.55078125,99.12109375,289.55078125,,,,755,Right,0.0,C
S16,1,Accuracy,Left,MA,0.0,2.0,1.0,1.0,570.80078125,437.01171875,133.7890625,242.67578125,194.3359375,307.6171875,Left,756,Right,1.0,C I
S16,1,Accuracy,Left,SA,1.0,1.0,1.0,0.0,396.484375,240.72265625,155.76171875,240.72265625,,,,757,Left,0.0,C
S16,4,Accuracy,Right,SA,1.0,1.0,1.0,0.0,449.70703125,335.9375,113.76953125,335.9375,,,,758,Right,0.0,C
S16,4,Accuracy,Right,SA,1.0,1.0,1.0,0.0,394.53125,281.25,113.28125,281.25,,,,759,Right,0.0,C
S16,2,Accuracy,Right,MA,0.0,2.0,1.0,1.0,606.93359375,510.7421875,96.19140625,280.76171875,229.98046875,352.5390625,Right,760,Left,1.0,C I
S16,5,Accuracy,Left,SA,1.0,1.0,1.0,0.0,370.60546875,237.3046875,133.30078125,237.3046875,,,,761,Left,0.0,C
S16,1,Accuracy,Right,MA,1.0,3.0,2.0,1.0,791.50390625,658.203125,133.30078125,388.671875,269.53125,,Left,762,Right,1.0,I C C
S16,2,Accuracy,Right,SA,1.0,1.0,1.0,0.0,451.66015625,342.7734375,108.88671875,342.7734375,,,,763,Right,0.0,C
S16,5,Accuracy,Right,MA,1.0,2.0,2.0,0.0,620.1171875,500.9765625,119.140625,295.41015625,205.56640625,,Right,764,Right,0.0,C C
S16,1,Accuracy,Right,SA,0.0,1.0,0.0,1.0,463.37890625,370.60546875,92.7734375,370.60546875,,,,765,Left,0.0,I
S16,2,Accuracy,Right,MA,1.0,2.0,1.0,1.0,491.69921875,373.53515625,118.1640625,247.55859375,125.9765625,,Left,766,Right,1.0,I C
S16,1,Accuracy,Right,SA,1.0,1.0,1.0,0.0,552.24609375,405.76171875,146.484375,405.76171875,,,,767,Right,0.0,C
S16,1,Accuracy,Right,SA,0.0,1.0,0.0,1.0,488.28125,365.72265625,122.55859375,365.72265625,,,,768,Left,0.0,I
S16,4,Accuracy,Right,SA,1.0,1.0,1.0,0.0,404.296875,294.921875,109.375,294.921875,,,,769,Right,0.0,C
S16,3,Accuracy,Left,SA,1.0,1.0,1.0,0.0,446.77734375,312.5,134.27734375,312.5,,,,770,Left,0.0,C
S16,3,Accuracy,Left,MA,1.0,2.0,2.0,0.0,572.265625,476.07421875,96.19140625,272.4609375,203.61328125,,Left,771,Left,0.0,C C
S16,2,Accuracy,Left,MA,0.0,3.0,1.0,2.0,561.5234375,537.109375,24.4140625,348.14453125,188.96484375,,Right,772,Right,2.0,I C I
S16,2,Accuracy,Right,MA,1.0,3.0,2.0,1.0,672.36328125,580.078125,92.28515625,411.1328125,168.9453125,152.34375,Right,773,Right,2.0,C I C
S16,4,Accuracy,Left,SA,1.0,1.0,1.0,0.0,424.31640625,304.19921875,120.1171875,304.19921875,,,,774,Left,0.0,C
S16,5,Accuracy,Left,SA,1.0,1.0,1.0,0.0,372.55859375,208.49609375,164.0625,208.49609375,,,,775,Left,0.0,C
S16,2,Accuracy,Right,SA,1.0,1.0,1.0,0.0,479.00390625,383.7890625,95.21484375,383.7890625,,,,776,Right,0.0,C
S16,1,Accuracy,Left,SA,1.0,1.0,1.0,0.0,399.4140625,239.2578125,160.15625,239.2578125,,,,777,Left,0.0,C
S16,5,Accuracy,Left,SA,1.0,1.0,1.0,0.0,342.28515625,211.9140625,130.37109375,211.9140625,,,,778,Left,0.0,C
S16,4,Accuracy,Left,MA,1.0,2.0,2.0,0.0,497.55859375,403.80859375,93.75,273.92578125,129.8828125,,Left,779,Left,0.0,C C
S16,3,Accuracy,Left,SA,1.0,1.0,1.0,0.0,445.80078125,331.54296875,114.2578125,331.54296875,,,,780,Left,0.0,C
S16,4,Accuracy,Right,MA,1.0,2.0,2.0,0.0,520.99609375,424.31640625,96.6796875,241.2109375,183.10546875,,Right,781,Right,0.0,C C
S16,2,Accuracy,Left,SA,1.0,1.0,1.0,0.0,459.9609375,328.125,131.8359375,328.125,,,,782,Left,0.0,C
S16,3,Accuracy,Left,MA,1.0,3.0,2.0,1.0,553.7109375,471.6796875,82.03125,188.96484375,282.71484375,338.8671875,Right,783,Left,1.0,I C C
S16,5,Accuracy,Right,SA,1.0,1.0,1.0,0.0,337.890625,250.9765625,86.9140625,250.9765625,,,,784,Right,0.0,C
S16,5,Accuracy,Left,SA,1.0,1.0,1.0,0.0,317.3828125,194.3359375,123.046875,194.3359375,,,,785,Left,0.0,C
S16,5,Accuracy,Right,UT,,0.0,,,297.36328125,,,,,,,786,,,
S16,3,Accuracy,Left,SA,1.0,1.0,1.0,0.0,314.94140625,166.9921875,147.94921875,166.9921875,,,,787,Left,0.0,C
S16,3,Accuracy,Left,MA,1.0,2.0,1.0,1.0,441.40625,291.50390625,149.90234375,190.4296875,101.07421875,,Right,788,Left,1.0,I C
S16,3,Accuracy,Right,MA,1.0,2.0,2.0,0.0,520.01953125,404.78515625,115.234375,224.609375,180.17578125,,Right,789,Right,0.0,C C
S16,2,Accuracy,Left,SA,0.0,1.0,0.0,1.0,399.4140625,261.71875,137.6953125,261.71875,,,,790,Right,0.0,I
S16,1,Accuracy,Right,SA,0.0,1.0,0.0,1.0,400.87890625,208.0078125,192.87109375,208.0078125,,,,791,Left,0.0,I
S16,3,Accuracy,Right,MA,1.0,2.0,1.0,1.0,535.15625,425.29296875,109.86328125,338.8671875,86.42578125,,Left,792,Right,1.0,I C
S16,4,Accuracy,Left,SA,1.0,1.0,1.0,0.0,457.51953125,332.51953125,125.0,332.51953125,,,,793,Left,0.0,C
S16,5,Accuracy,Left,MA,1.0,2.0,2.0,0.0,645.01953125,573.2421875,71.77734375,259.27734375,313.96484375,,Left,794,Left,0.0,C C
S16,1,Accuracy,Left,MA,0.0,2.0,1.0,1.0,480.46875,375.48828125,104.98046875,213.8671875,161.62109375,178.7109375,Left,795,Right,1.0,C I
S16,5,Accuracy,Right,MA,1.0,4.0,3.0,1.0,623.53515625,550.78125,72.75390625,264.16015625,286.62109375,,Right,796,Right,1.0,C C C I
S16,5,Accuracy,Right,SA,1.0,1.0,1.0,0.0,393.06640625,291.9921875,101.07421875,291.9921875,,,,797,Right,0.0,C
S16,1,Accuracy,Left,MA,0.0,2.0,1.0,1.0,644.04296875,552.734375,91.30859375,520.99609375,31.73828125,,Left,798,Right,1.0,C I
S16,3,Accuracy,Left,SA,0.0,1.0,0.0,1.0,423.33984375,322.265625,101.07421875,322.265625,,,,799,Right,0.0,I
S16,3,Accuracy,Right,MA,1.0,2.0,1.0,1.0,647.94921875,537.59765625,110.3515625,426.7578125,110.83984375,,Left,800,Right,1.0,I C
S16,3,Accuracy,Right,SA,1.0,1.0,1.0,0.0,466.796875,369.62890625,97.16796875,369.62890625,,,,801,Right,0.0,C
S16,4,Accuracy,Right,SA,1.0,1.0,1.0,0.0,394.04296875,319.82421875,74.21875,319.82421875,,,,802,Right,0.0,C
S16,3,Accuracy,Right,MA,1.0,4.0,2.0,2.0,609.375,445.3125,164.0625,190.4296875,254.8828125,,Left,803,Right,3.0,I C I C
S16,3,Accuracy,Left,MA,1.0,2.0,1.0,1.0,524.4140625,434.5703125,89.84375,276.3671875,158.203125,220.21484375,Right,804,Left,1.0,I C
S16,3,Accuracy,Left,MA,1.0,2.0,1.0,1.0,476.07421875,382.32421875,93.75,268.5546875,113.76953125,,Right,805,Left,1.0,I C
S16,2,Accuracy,Right,MA,1.0,2.0,1.0,1.0,571.77734375,483.3984375,88.37890625,391.11328125,92.28515625,,Left,806,Right,1.0,I C
S16,5,Accuracy,Left,UT,,0.0,,,386.23046875,,,,,,,807,,,
S16,4,Accuracy,Right,SA,1.0,1.0,1.0,0.0,528.80859375,420.41015625,108.3984375,420.41015625,,,,808,Right,0.0,C
S16,4,Accuracy,Right,UT,,0.0,,,436.03515625,,,,,,,809,,,
S16,1,Accuracy,Right,UT,,0.0,,,476.5625,,,,,,,810,,,
S16,4,Accuracy,Right,MA,1.0,2.0,2.0,0.0,446.2890625,402.83203125,43.45703125,271.97265625,130.859375,,Right,811,Right,0.0,C C
S16,1,Accuracy,Right,MA,1.0,3.0,2.0,1.0,750.0,655.2734375,94.7265625,445.80078125,209.47265625,,Right,812,Right,2.0,C I C
S16,5,Accuracy,Right,SA,1.0,1.0,1.0,0.0,451.171875,353.02734375,98.14453125,353.02734375,,,,813,Right,0.0,C
S16,1,Accuracy,Right,MA,1.0,2.0,1.0,1.0,649.4140625,526.85546875,122.55859375,315.91796875,210.9375,289.0625,Left,814,Right,1.0,I C
S16,1,Accuracy,Left,MA,0.0,2.0,1.0,1.0,443.359375,336.9140625,106.4453125,336.9140625,0.0,,Right,815,Right,1.0,I C
S16,1,Accuracy,Left,MA,1.0,2.0,2.0,0.0,323.2421875,237.3046875,85.9375,160.15625,77.1484375,,Left,816,Left,0.0,C C
S16,4,Accuracy,Left,SA,1.0,1.0,1.0,0.0,413.57421875,291.9921875,121.58203125,291.9921875,,,,817,Left,0.0,C
S16,3,Accuracy,Right,MA,1.0,4.0,2.0,2.0,781.73828125,696.2890625,85.44921875,213.37890625,482.91015625,,Left,818,Right,1.0,I I C C
S16,4,Accuracy,Left,SA,1.0,1.0,1.0,0.0,414.0625,264.6484375,149.4140625,264.6484375,,,,819,Left,0.0,C
S16,4,Accuracy,Right,SA,1.0,1.0,1.0,0.0,394.04296875,284.1796875,109.86328125,284.1796875,,,,820,Right,0.0,C
S16,2,Accuracy,Right,MA,1.0,2.0,1.0,1.0,485.83984375,392.08984375,93.75,220.21484375,171.875,,Left,821,Right,1.0,I C
S16,5,Accuracy,Right,SA,1.0,1.0,1.0,0.0,398.4375,294.43359375,104.00390625,294.43359375,,,,822,Right,0.0,C
S16,4,Accuracy,Left,SA,1.0,1.0,1.0,0.0,597.16796875,319.3359375,277.83203125,319.3359375,,,,823,Left,0.0,C
S16,5,Accuracy,Left,SA,1.0,1.0,1.0,0.0,435.05859375,312.01171875,123.046875,312.01171875,,,,824,Left,0.0,C
S16,5,Accuracy,Right,SA,1.0,1.0,1.0,0.0,412.59765625,275.87890625,136.71875,275.87890625,,,,825,Right,0.0,C
S16,5,Accuracy,Right,SA,1.0,1.0,1.0,0.0,389.16015625,261.71875,127.44140625,261.71875,,,,826,Right,0.0,C
S16,5,Accuracy,Left,SA,1.0,1.0,1.0,0.0,408.203125,270.01953125,138.18359375,270.01953125,,,,827,Left,0.0,C
S16,4,Accuracy,Left,SA,1.0,1.0,1.0,0.0,391.11328125,223.14453125,167.96875,223.14453125,,,,828,Left,0.0,C
S16,1,Accuracy,Left,MA,0.0,2.0,1.0,1.0,465.8203125,353.02734375,112.79296875,168.9453125,184.08203125,223.6328125,Left,829,Right,1.0,C I
S16,3,Accuracy,Left,SA,1.0,1.0,1.0,0.0,519.53125,421.38671875,98.14453125,421.38671875,,,,830,Left,0.0,C
S16,1,Accuracy,Left,MA,0.0,3.0,1.0,2.0,763.18359375,676.26953125,86.9140625,247.55859375,428.7109375,465.8203125,Left,831,Right,1.0,C I I
S16,2,Accuracy,Right,SA,1.0,1.0,1.0,0.0,424.8046875,319.82421875,104.98046875,319.82421875,,,,832,Right,0.0,C
S16,3,Accuracy,Left,SA,1.0,1.0,1.0,0.0,397.94921875,243.65234375,154.296875,243.65234375,,,,833,Left,0.0,C
S16,2,Accuracy,Left,MA,0.0,2.0,1.0,1.0,555.17578125,446.2890625,108.88671875,293.45703125,152.83203125,,Left,834,Right,1.0,C I
S16,2,Accuracy,Left,SA,1.0,1.0,1.0,0.0,441.89453125,332.03125,109.86328125,332.03125,,,,835,Left,0.0,C
S16,1,Accuracy,Left,MA,1.0,2.0,1.0,1.0,544.43359375,396.484375,147.94921875,310.546875,85.9375,,Right,836,Left,1.0,I C
S16,3,Accuracy,Left,MA,1.0,2.0,2.0,0.0,541.015625,394.04296875,146.97265625,335.9375,58.10546875,,Left,837,Left,0.0,C C
S16,1,Accuracy,Right,SA,1.0,1.0,1.0,0.0,409.1796875,299.31640625,109.86328125,299.31640625,,,,838,Right,0.0,C
S16,4,Accuracy,Right,SA,1.0,1.0,1.0,0.0,367.1875,262.6953125,104.4921875,262.6953125,,,,839,Right,0.0,C
S16,1,Accuracy,Left,MA,0.0,2.0,1.0,1.0,382.32421875,254.39453125,127.9296875,254.39453125,0.0,104.98046875,Right,840,Right,1.0,I C
S16,5,Accuracy,Right,MA,1.0,2.0,1.0,1.0,380.859375,286.62109375,94.23828125,150.87890625,135.7421875,197.75390625,Left,841,Right,1.0,I C
S16,4,Accuracy,Right,SA,0.0,1.0,0.0,1.0,257.32421875,103.02734375,154.296875,103.02734375,,,,842,Left,0.0,I
S16,4,Accuracy,Left,SA,1.0,1.0,1.0,0.0,388.18359375,229.98046875,158.203125,229.98046875,,,,843,Left,0.0,C
S16,3,Accuracy,Right,MA,1.0,2.0,2.0,0.0,629.39453125,572.75390625,56.640625,341.30859375,231.4453125,,Right,844,Right,0.0,C C
S16,2,Accuracy,Right,MA,1.0,2.0,1.0,1.0,426.26953125,347.16796875,79.1015625,322.265625,24.90234375,104.00390625,Left,845,Right,1.0,I C
S16,2,Accuracy,Right,MA,1.0,5.0,3.0,2.0,924.31640625,842.28515625,82.03125,247.55859375,594.7265625,658.203125,Left,846,Right,3.0,I C C I C
S16,3,Accuracy,Right,MA,1.0,2.0,1.0,1.0,658.203125,569.82421875,88.37890625,422.8515625,146.97265625,,Left,847,Right,1.0,I C
S16,5,Accuracy,Right,SA,1.0,1.0,1.0,0.0,391.11328125,283.69140625,107.421875,283.69140625,,,,848,Right,0.0,C
S16,1,Accuracy,Right,MA,0.0,2.0,0.0,2.0,535.15625,444.82421875,90.33203125,315.91796875,128.90625,,Left,849,Left,0.0,I I
S16,4,Accuracy,Left,SA,1.0,1.0,1.0,0.0,448.2421875,343.26171875,104.98046875,343.26171875,,,,850,Left,0.0,C
S16,4,Accuracy,Right,MA,1.0,3.0,3.0,0.0,760.25390625,677.734375,82.51953125,330.56640625,347.16796875,,Right,851,Right,0.0,C C C
S16,4,Accuracy,Right,SA,1.0,1.0,1.0,0.0,382.8125,281.73828125,101.07421875,281.73828125,,,,852,Right,0.0,C
S16,2,Accuracy,Left,SA,0.0,1.0,0.0,1.0,350.09765625,212.40234375,137.6953125,212.40234375,,,,853,Right,0.0,I
S16,2,Accuracy,Left,MA,1.0,2.0,1.0,1.0,492.1875,351.07421875,141.11328125,261.71875,89.35546875,,Right,854,Left,1.0,I C
S16,3,Accuracy,Right,MA,1.0,2.0,1.0,1.0,489.74609375,344.23828125,145.5078125,209.9609375,134.27734375,,Left,855,Right,1.0,I C
S16,1,Accuracy,Left,MA,1.0,3.0,3.0,0.0,738.76953125,615.234375,123.53515625,279.78515625,335.44921875,,Left,856,Left,0.0,C C C
S16,2,Accuracy,Left,MA,0.0,2.0,1.0,1.0,453.125,334.47265625,118.65234375,247.55859375,86.9140625,,Left,857,Right,1.0,C I
S16,1,Accuracy,Right,MA,1.0,3.0,2.0,1.0,741.2109375,634.765625,106.4453125,317.87109375,316.89453125,,Right,858,Right,2.0,C I C
S16,5,Accuracy,Left,SA,1.0,1.0,1.0,0.0,359.375,233.88671875,125.48828125,233.88671875,,,,859,Left,0.0,C
S16,1,Accuracy,Right,MA,1.0,3.0,2.0,1.0,681.15234375,583.49609375,97.65625,383.7890625,199.70703125,,Right,860,Right,2.0,C I C
S16,4,Accuracy,Left,SA,1.0,1.0,1.0,0.0,493.1640625,371.09375,122.0703125,371.09375,,,,861,Left,0.0,C
S16,2,Accuracy,Right,SA,1.0,1.0,1.0,0.0,389.16015625,286.62109375,102.5390625,286.62109375,,,,862,Right,0.0,C
S16,4,Accuracy,Right,SA,1.0,1.0,1.0,0.0,374.0234375,277.83203125,96.19140625,277.83203125,,,,863,Right,0.0,C
S16,3,Accuracy,Right,SA,1.0,1.0,1.0,0.0,442.87109375,302.24609375,140.625,302.24609375,,,,864,Right,0.0,C
S16,1,Accuracy,Right,MA,1.0,3.0,2.0,1.0,837.890625,749.51171875,88.37890625,417.96875,331.54296875,354.00390625,Right,865,Right,2.0,C I C
S16,1,Accuracy,Left,SA,1.0,1.0,1.0,0.0,433.10546875,297.8515625,135.25390625,297.8515625,,,,866,Left,0.0,C
S16,2,Accuracy,Right,SA,1.0,1.0,1.0,0.0,436.03515625,339.84375,96.19140625,339.84375,,,,867,Right,0.0,C
S16,4,Accuracy,Left,SA,1.0,1.0,1.0,0.0,398.92578125,265.13671875,133.7890625,265.13671875,,,,868,Left,0.0,C
S16,3,Accuracy,Right,MA,1.0,2.0,1.0,1.0,507.8125,372.0703125,135.7421875,221.6796875,150.390625,258.30078125,Left,869,Right,1.0,I C
S16,4,Accuracy,Left,MA,1.0,2.0,1.0,1.0,483.88671875,338.8671875,145.01953125,259.765625,79.1015625,192.3828125,Right,870,Left,1.0,I C
S16,2,Accuracy,Left,MA,1.0,4.0,2.0,2.0,803.7109375,709.47265625,94.23828125,373.046875,336.42578125,414.0625,Left,871,Left,2.0,C I I C
S16,3,Accuracy,Right,SA,1.0,1.0,1.0,0.0,388.671875,299.8046875,88.8671875,299.8046875,,,,872,Right,0.0,C
S16,5,Accuracy,Right,SA,1.0,1.0,1.0,0.0,384.27734375,267.08984375,117.1875,267.08984375,,,,873,Right,0.0,C
S16,5,Accuracy,Left,SA,1.0,1.0,1.0,0.0,441.40625,319.82421875,121.58203125,319.82421875,,,,874,Left,0.0,C
S16,3,Accuracy,Left,MA,0.0,5.0,3.0,2.0,923.33984375,841.30859375,82.03125,144.04296875,697.265625,751.46484375,Left,875,Right,3.0,C I C C I
S16,3,Accuracy,Left,SA,1.0,1.0,1.0,0.0,396.484375,277.34375,119.140625,277.34375,,,,876,Left,0.0,C
S16,2,Accuracy,Left,SA,0.0,1.0,0.0,1.0,425.29296875,302.734375,122.55859375,302.734375,,,,877,Right,0.0,I
S16,2,Accuracy,Right,MA,1.0,3.0,2.0,1.0,693.84765625,617.1875,76.66015625,272.4609375,344.7265625,437.5,Left,878,Right,1.0,I C C
S16,2,Accuracy,Left,SA,1.0,1.0,1.0,0.0,406.25,255.859375,150.390625,255.859375,,,,879,Left,0.0,C
S16,2,Accuracy,Right,MA,1.0,2.0,1.0,1.0,649.90234375,542.48046875,107.421875,475.09765625,67.3828125,,Left,880,Right,1.0,I C
S16,1,Accuracy,Right,MA,0.0,2.0,0.0,2.0,767.08984375,640.625,126.46484375,454.1015625,186.5234375,,Left,881,Left,0.0,I I
S16,1,Accuracy,Left,MA,0.0,2.0,1.0,1.0,564.453125,436.03515625,128.41796875,313.4765625,122.55859375,,Left,882,Right,1.0,C I
S16,2,Accuracy,Right,SA,0.0,1.0,0.0,1.0,528.3203125,404.296875,124.0234375,404.296875,,,,883,Left,0.0,I
S16,5,Accuracy,Right,SA,1.0,1.0,1.0,0.0,376.953125,275.390625,101.5625,275.390625,,,,884,Right,0.0,C
S16,3,Accuracy,Right,MA,1.0,2.0,1.0,1.0,531.25,420.8984375,110.3515625,340.8203125,80.078125,,Left,885,Right,1.0,I C
S16,5,Accuracy,Left,SA,1.0,1.0,1.0,0.0,367.67578125,198.2421875,169.43359375,198.2421875,,,,886,Left,0.0,C
S16,2,Accuracy,Left,SA,0.0,1.0,0.0,1.0,380.859375,247.0703125,133.7890625,247.0703125,,,,887,Right,0.0,I
S16,2,Accuracy,Left,MA,1.0,4.0,2.0,2.0,632.8125,532.71484375,100.09765625,273.92578125,258.7890625,322.75390625,Right,888,Left,3.0,I C I C
S16,3,Accuracy,Left,MA,1.0,2.0,1.0,1.0,490.234375,383.7890625,106.4453125,252.44140625,131.34765625,201.66015625,Right,889,Left,1.0,I C
S16,3,Accuracy,Left,SA,0.0,1.0,0.0,1.0,403.80859375,269.53125,134.27734375,269.53125,,,,890,Right,0.0,I
S16,5,Accuracy,Left,SA,1.0,1.0,1.0,0.0,323.73046875,199.21875,124.51171875,199.21875,,,,891,Left,0.0,C
S16,5,Accuracy,Right,SA,1.0,1.0,1.0,0.0,411.1328125,305.6640625,105.46875,305.6640625,,,,892,Right,0.0,C
S16,3,Accuracy,Left,SA,1.0,1.0,1.0,0.0,359.86328125,215.8203125,144.04296875,215.8203125,,,,893,Left,0.0,C
S16,1,Accuracy,Left,SA,0.0,1.0,0.0,1.0,383.30078125,287.59765625,95.703125,287.59765625,,,,894,Right,0.0,I
S16,5,Accuracy,Left,SA,1.0,1.0,1.0,0.0,352.5390625,245.60546875,106.93359375,245.60546875,,,,895,Left,0.0,C
S16,5,Accuracy,Left,SA,1.0,1.0,1.0,0.0,349.609375,217.28515625,132.32421875,217.28515625,,,,896,Left,0.0,C
S16,4,Accuracy,Left,SA,1.0,1.0,1.0,0.0,338.37890625,188.4765625,149.90234375,188.4765625,,,,897,Left,0.0,C
S16,5,Accuracy,Right,MA,1.0,3.0,3.0,0.0,603.515625,506.34765625,97.16796875,318.84765625,187.5,,Right,898,Right,0.0,C C C
S16,1,Accuracy,Right,SA,1.0,1.0,1.0,0.0,402.34375,277.34375,125.0,277.34375,,,,899,Right,0.0,C
S16,5,Accuracy,Left,SA,1.0,1.0,1.0,0.0,295.41015625,157.2265625,138.18359375,157.2265625,,,,900,Left,0.0,C
S16,3,Speed,Right,SA,1.0,1.0,1.0,0.0,407.2265625,338.37890625,68.84765625,338.37890625,,,,901,Right,0.0,C
S16,1,Speed,Right,MA,1.0,3.0,1.0,2.0,317.3828125,249.51171875,67.87109375,75.1953125,174.31640625,,Left,902,Right,1.0,I I C
S16,4,Speed,Left,MA,1.0,3.0,2.0,1.0,442.3828125,368.1640625,74.21875,124.51171875,243.65234375,273.92578125,Left,903,Left,2.0,C I C
S16,2,Speed,Left,SA,0.0,1.0,0.0,1.0,310.05859375,242.1875,67.87109375,242.1875,,,,904,Right,0.0,I
S16,2,Speed,Left,SA,1.0,1.0,1.0,0.0,283.69140625,152.34375,131.34765625,152.34375,,,,905,Left,0.0,C
